aX,aY,aZ,gX,gY,gZ
0.034,0.033,0.852,-1.648,-35.645,-3.723
0.050,0.009,0.824,-3.662,-36.316,-2.869
0.064,-0.013,0.789,-6.470,-36.438,-1.953
0.100,-0.036,0.739,-10.132,-37.231,-1.099
0.133,-0.054,0.674,-14.404,-39.063,0.000
0.153,-0.062,0.611,-19.592,-41.382,1.160
0.160,-0.054,0.542,-25.146,-43.945,1.953
0.169,-0.039,0.471,-30.396,-47.729,2.441
0.194,-0.005,0.382,-32.898,-53.040,2.441
0.191,0.035,0.286,-31.555,-60.730,2.686
0.203,0.065,0.206,-26.611,-69.885,2.380
0.238,0.063,0.114,-18.372,-78.369,2.075
0.275,0.044,0.048,-8.789,-84.412,2.258
0.294,0.021,0.029,0.183,-86.670,2.258
0.289,0.001,0.022,5.737,-83.008,2.930
0.325,-0.007,0.009,6.775,-72.388,3.906
0.338,0.011,0.013,6.042,-58.167,3.845
0.319,0.053,0.011,4.944,-42.847,4.944
0.312,0.087,-0.001,3.967,-29.358,7.935
0.301,0.118,0.003,4.517,-20.081,12.573
0.317,0.141,-0.025,7.385,-15.808,16.907
0.384,0.163,-0.068,14.709,-14.099,19.714
0.369,0.186,-0.069,27.100,-12.573,22.644
0.315,0.208,-0.086,39.185,-8.362,27.283
0.266,0.161,-0.078,48.828,0.854,33.997
0.246,0.115,-0.048,59.326,15.625,39.429
0.228,0.065,-0.000,70.435,33.020,42.480
0.213,0.019,0.099,75.867,54.260,45.959
0.194,-0.010,0.206,73.120,81.604,49.866
0.232,0.029,0.320,66.650,111.023,52.368
0.287,0.081,0.431,64.453,132.690,55.359
0.317,0.088,0.497,66.895,141.357,62.195
0.315,0.070,0.524,69.275,145.325,71.106
0.319,0.004,0.626,72.998,156.311,80.444
0.326,-0.152,0.769,77.209,178.101,88.928
0.408,-0.232,0.920,77.332,206.909,92.834
0.406,-0.348,1.295,82.336,240.601,93.628
0.334,-0.601,1.818,98.450,274.719,93.567
0.367,-0.895,2.358,114.624,302.124,88.440
0.462,-1.084,2.966,117.798,312.927,77.759
0.437,-0.726,3.427,103.516,280.273,78.857
0.049,-0.984,3.599,66.772,175.781,114.014
0.270,-1.025,3.748,34.851,100.525,37.720
0.239,-1.092,3.646,45.776,120.422,3.357
-0.205,-0.814,3.623,57.800,71.655,38.940
0.004,-1.115,3.517,40.344,12.756,51.086
-0.198,-1.164,3.361,30.029,-13.306,49.805
-0.327,-1.239,3.237,27.405,-5.859,42.114
-0.291,-1.273,3.145,18.372,7.324,29.541
-0.303,-1.251,3.120,0.854,6.165,17.151
-0.290,-1.245,3.066,-14.893,-4.150,-1.465
-0.242,-1.174,2.902,-25.330,-19.531,-21.606
-0.292,-1.073,2.672,-32.349,-47.485,-35.217
-0.174,-0.946,2.469,-36.011,-75.378,-39.124
-0.169,-0.998,2.224,-31.616,-108.154,-43.823
-0.168,-1.002,1.974,-20.935,-124.268,-56.702
-0.172,-1.015,1.831,-10.315,-131.104,-70.557
-0.187,-1.006,1.669,-7.446,-129.883,-78.125
-0.158,-1.029,1.561,-10.376,-114.319,-83.191
-0.177,-1.015,1.466,-20.508,-98.572,-90.759
-0.126,-0.991,1.382,-29.602,-75.439,-101.379
-0.068,-0.944,1.365,-32.104,-47.180,-113.159
-0.078,-0.964,1.403,-30.762,-26.428,-124.329
-0.058,-0.969,1.443,-29.297,-18.738,-136.780
-0.008,-0.942,1.499,-27.588,-27.466,-149.780
0.060,-0.884,1.488,-25.146,-45.227,-160.278
0.134,-0.833,1.434,-22.705,-65.125,-166.077
0.181,-0.760,1.392,-18.250,-84.229,-167.847
0.199,-0.712,1.301,-6.958,-102.844,-169.250
0.216,-0.666,1.193,7.690,-122.559,-170.593
0.181,-0.689,1.138,20.386,-139.404,-170.044
0.127,-0.805,1.088,32.837,-142.639,-173.767
0.061,-0.859,1.080,45.227,-138.123,-189.331
0.070,-0.816,1.027,51.270,-135.498,-209.595
0.062,-0.734,0.937,49.133,-131.165,-221.924
0.085,-0.628,0.781,45.959,-117.554,-225.952
0.093,-0.520,0.741,50.598,-96.436,-221.802
0.149,-0.464,0.742,54.871,-70.984,-210.693
0.154,-0.529,0.780,46.814,-46.936,-195.068
0.156,-0.644,0.836,28.381,-34.180,-183.716
0.218,-0.650,0.797,6.042,-37.476,-182.373
0.263,-0.642,0.704,-15.320,-45.044,-185.242
0.268,-0.617,0.537,-32.166,-45.166,-190.796
0.275,-0.566,0.244,-40.100,-41.077,-201.416
0.323,-0.387,-0.065,-32.227,-39.734,-213.562
0.426,-0.210,-0.222,-3.357,-38.635,-222.961
0.623,-0.031,-0.144,31.738,-34.180,-224.976
0.815,0.106,-0.013,49.805,-26.001,-213.257
0.943,0.180,0.043,39.246,-14.893,-185.791
0.982,0.243,-0.041,8.118,1.282,-150.208
1.052,0.262,-0.138,-26.428,23.621,-115.356
1.096,0.180,-0.146,-54.138,49.438,-86.731
1.144,0.323,-0.107,-65.918,69.336,-80.200
1.151,0.528,0.000,-56.091,71.838,-90.515
1.164,0.594,0.090,-33.569,64.819,-100.159
1.200,0.687,0.290,-2.625,56.091,-111.572
1.219,0.825,0.520,24.963,43.335,-123.169
1.210,0.966,0.651,36.194,29.846,-121.826
1.185,1.084,0.730,30.762,20.569,-104.675
1.082,1.079,0.840,13.611,17.151,-72.815
0.909,0.977,0.846,-11.292,19.653,-37.476
0.757,0.901,0.775,-34.546,21.423,-9.888
0.607,0.853,0.713,-47.363,20.020,9.827
0.441,0.792,0.639,-47.913,17.395,25.085
0.286,0.648,0.603,-36.438,11.475,33.447
0.130,0.505,0.615,-18.188,1.343,31.860
0.017,0.432,0.657,1.526,-8.789,23.560
-0.063,0.357,0.681,17.456,-17.944,18.066
-0.138,0.287,0.674,21.118,-23.010,20.264
-0.203,0.220,0.627,14.893,-21.057,26.672
-0.287,0.138,0.571,7.507,-14.709,34.363
-0.365,0.026,0.594,6.287,-5.920,39.978
-0.407,-0.062,0.701,9.766,5.310,39.795
-0.390,-0.101,0.835,12.573,15.625,36.377
-0.375,-0.127,0.930,11.169,21.667,34.912
-0.389,-0.153,0.979,7.751,22.034,34.241
-0.368,-0.211,0.998,6.104,18.433,31.555
-0.362,-0.226,1.032,8.118,12.939,26.062
-0.337,-0.222,1.080,12.268,7.751,18.799
0.108,0.203,-0.107,-16.724,-29.602,-16.602
0.109,0.272,-0.173,-9.521,-28.870,-18.677
0.128,0.350,-0.285,0.977,-32.166,-19.897
0.107,0.448,-0.370,14.160,-35.706,-18.127
0.092,0.500,-0.429,31.799,-33.020,-15.259
0.087,0.469,-0.422,54.077,-24.475,-10.803
0.099,0.352,-0.309,74.463,-11.292,-4.639
0.103,0.213,-0.165,87.097,7.446,-1.343
0.091,0.089,0.026,91.248,30.945,-1.221
0.042,-0.028,0.275,91.370,56.641,-2.258
0.027,-0.126,0.509,91.736,82.397,-5.859
0.033,-0.172,0.772,92.896,96.497,-14.465
0.051,-0.109,0.905,92.773,97.046,-21.484
0.121,-0.016,0.928,91.125,88.501,-23.926
0.198,0.042,0.927,87.585,80.750,-21.423
0.232,0.065,0.993,83.130,77.698,-14.587
0.205,0.004,1.114,79.712,80.994,-5.066
0.179,-0.047,1.255,73.853,88.135,0.671
0.165,-0.039,1.334,67.383,93.628,0.732
0.113,-0.095,1.426,68.665,95.093,-0.549
0.091,-0.159,1.488,73.669,96.558,-0.427
0.101,-0.208,1.528,76.782,100.403,-1.526
0.152,-0.209,1.584,75.806,107.544,-4.700
0.238,-0.161,1.609,71.960,115.417,-8.301
0.287,-0.131,1.667,67.749,120.117,-6.348
0.625,-0.152,1.724,66.284,122.131,-2.808
0.315,0.144,1.993,59.082,88.989,9.216
0.405,-0.173,1.970,53.955,57.617,26.489
0.298,-0.378,1.971,64.148,65.125,9.705
0.204,-0.373,2.048,69.580,68.298,2.930
0.308,-0.477,2.239,65.247,48.340,3.540
0.130,-0.555,2.435,57.312,30.579,19.592
0.083,-0.687,2.491,46.387,25.024,20.935
0.073,-0.694,2.592,37.476,26.550,11.719
0.057,-0.690,2.714,30.212,6.348,13.123
0.038,-0.836,2.774,22.095,-14.893,14.160
-0.013,-0.950,2.804,14.832,-27.222,10.986
-0.125,-1.013,2.750,7.141,-40.588,7.385
-0.196,-1.130,2.672,0.671,-52.734,-0.671
-0.167,-1.274,2.639,-4.822,-59.875,-9.521
-0.404,-1.361,2.534,-13.306,-65.125,-15.808
-0.365,-1.454,2.330,-25.635,-62.561,-27.527
-0.471,-1.595,2.260,-35.156,-57.312,-43.640
-0.544,-1.707,2.187,-41.443,-52.063,-60.303
-0.518,-1.784,2.067,-46.997,-53.101,-80.627
-0.535,-1.839,1.970,-48.889,-54.810,-98.938
-0.541,-1.876,1.947,-46.326,-54.810,-112.671
-0.574,-1.911,1.840,-49.500,-64.148,-125.122
-0.563,-1.926,1.672,-54.565,-73.486,-139.771
-0.581,-1.936,1.585,-57.251,-75.745,-156.006
-0.499,-1.916,1.517,-58.655,-70.251,-175.903
-0.398,-1.766,1.459,-56.885,-69.641,-201.599
-0.324,-1.681,1.504,-48.523,-80.322,-224.060
-0.188,-1.558,1.506,-36.987,-94.055,-243.652
-0.026,-1.386,1.469,-28.076,-109.375,-260.071
0.068,-1.266,1.446,-25.696,-122.742,-271.301
0.099,-1.228,1.420,-22.156,-128.784,-280.029
0.218,-1.124,1.291,-9.338,-134.521,-291.565
0.445,-0.916,1.130,3.235,-143.311,-300.720
0.614,-0.713,0.925,6.165,-141.174,-295.410
0.742,-0.584,0.723,0.427,-123.840,-279.480
0.870,-0.434,0.540,-9.644,-100.525,-261.780
1.001,-0.245,0.374,-19.714,-78.125,-245.911
1.061,-0.168,0.237,-22.095,-60.059,-232.178
1.110,-0.119,0.089,-18.860,-45.715,-223.938
1.174,-0.019,-0.021,-13.611,-38.757,-222.046
1.307,0.017,-0.030,-3.052,-35.156,-224.243
1.482,0.231,-0.044,13.855,-34.241,-231.445
1.697,0.493,0.050,29.419,-37.842,-228.455
1.864,0.617,0.113,33.691,-34.912,-204.529
1.849,0.718,0.109,26.855,-23.865,-173.523
1.794,0.834,0.118,16.357,-9.277,-141.235
1.751,0.967,0.118,8.362,5.554,-111.328
1.687,1.073,0.154,5.981,15.930,-82.581
1.550,0.835,0.312,8.972,22.583,-58.838
1.446,0.782,0.511,10.803,27.100,-59.204
1.413,1.034,0.580,4.883,24.902,-70.801
1.333,1.090,0.532,-8.911,17.578,-59.998
1.154,1.044,0.426,-16.968,9.155,-43.213
0.905,1.007,0.374,-12.634,-1.953,-34.485
0.744,0.945,0.353,-1.831,-14.099,-28.198
0.631,0.896,0.329,7.080,-20.447,-22.827
0.495,0.791,0.349,11.108,-22.522,-14.893
0.383,0.698,0.407,9.644,-18.372,-4.944
0.245,0.574,0.454,4.211,-14.221,4.761
0.103,0.464,0.489,-0.977,-14.771,9.705
-0.002,0.385,0.506,-1.709,-18.188,7.935
-0.049,0.327,0.529,2.991,-23.376,3.784
-0.059,0.341,0.508,10.193,-28.931,1.587
-0.111,0.314,0.493,15.503,-32.043,7.141
-0.184,0.223,0.510,17.517,-26.611,16.541
-0.258,0.123,0.565,16.541,-13.245,22.095
-0.298,0.079,0.597,13.855,-0.427,24.536
-0.335,0.015,0.654,13.306,7.751,25.452
-0.366,-0.067,0.741,14.343,13.184,24.841
-0.394,-0.128,0.848,15.747,16.113,22.034
-0.429,-0.147,0.906,16.296,14.526,18.555
-0.444,-0.155,0.941,17.090,12.817,15.015
-0.448,-0.191,1.010,18.799,12.024,12.207
-0.439,-0.210,1.057,16.296,13.184,9.521
-0.396,-0.197,1.097,11.292,13.428,7.812
-0.390,-0.187,1.103,4.944,10.071,9.827
-0.344,-0.176,1.079,-0.366,13.367,12.024
-0.347,-0.151,1.074,-5.005,9.155,12.268
-0.315,-0.092,1.037,-5.066,7.141,7.202
-0.282,-0.026,1.006,-0.549,2.930,4.028
-0.260,-0.010,0.993,5.310,-3.540,2.625
-0.239,0.001,0.968,10.925,-6.836,0.366
-0.187,-0.012,0.953,15.259,-5.310,-0.977
-0.189,-0.049,0.991,16.968,-3.052,-2.686
-0.161,-0.051,1.015,17.883,-0.977,-5.432
-0.109,-0.037,1.041,18.188,0.732,-6.592
-0.083,-0.022,1.060,16.724,3.479,-5.676
-0.084,-0.020,1.080,13.428,6.348,-3.662
-0.087,-0.013,1.078,10.681,8.179,-2.075
-0.086,-0.010,1.086,8.667,7.996,-0.488
-0.093,-0.030,1.106,7.385,6.714,1.404
-0.107,-0.035,1.106,6.653,2.747,1.465
-0.127,-0.046,1.096,6.287,-3.845,1.343
-0.027,0.013,1.001,-12.085,-6.714,-0.183
-0.026,0.017,0.998,-12.817,-8.057,-0.732
-0.019,0.015,0.991,-12.390,-10.437,-1.099
-0.010,0.008,0.984,-12.207,-12.024,-1.648
0.001,0.003,0.981,-12.512,-12.634,-2.258
0.009,-0.001,0.990,-12.939,-13.245,-2.686
0.016,-0.002,0.994,-13.428,-14.526,-3.174
0.021,-0.007,0.990,-15.015,-15.198,-3.723
0.030,-0.017,0.982,-18.250,-14.648,-4.089
0.031,-0.020,0.975,-22.339,-13.977,-4.700
0.033,-0.013,0.954,-26.428,-13.733,-5.981
0.035,-0.010,0.931,-30.334,-14.771,-7.751
0.060,-0.023,0.896,-34.363,-17.639,-9.338
0.100,-0.019,0.859,-39.001,-20.508,-10.742
0.102,-0.040,0.817,-41.748,-23.926,-13.245
0.134,-0.042,0.778,-44.800,-30.762,-14.893
0.186,-0.036,0.671,-48.950,-40.466,-14.404
0.220,-0.040,0.551,-52.856,-50.171,-15.320
0.233,-0.041,0.427,-57.983,-58.533,-14.771
0.264,-0.047,0.261,-65.247,-65.186,-11.658
0.299,-0.029,0.088,-73.608,-71.472,-8.179
0.289,0.032,-0.125,-81.360,-79.956,-5.798
0.299,0.084,-0.355,-83.496,-90.759,-5.676
0.298,0.206,-0.678,-80.872,-104.553,-7.629
0.323,0.431,-1.099,-72.021,-116.821,-12.146
0.311,0.658,-1.593,-41.199,-125.305,-15.808
0.349,0.792,-1.944,11.047,-117.798,-13.489
0.381,0.780,-2.057,75.256,-86.304,-10.559
0.395,0.682,-1.985,128.235,-28.564,-4.211
0.400,0.507,-1.739,157.166,48.706,9.338
0.434,0.361,-1.516,160.461,128.540,26.184
0.516,0.132,-1.117,147.949,200.378,43.945
0.536,-0.057,-0.738,131.653,251.648,58.289
0.564,-0.155,-0.415,121.033,283.081,62.988
0.538,-0.295,0.085,131.226,297.607,59.814
0.496,-0.620,0.665,156.799,295.166,56.519
0.471,-0.888,1.189,175.110,284.607,50.049
0.481,-1.099,1.727,178.162,277.954,40.222
0.531,-1.220,2.094,170.776,271.301,30.884
0.553,-1.207,2.376,160.950,261.414,22.217
0.782,-1.258,2.734,155.701,255.066,18.127
0.927,-1.163,2.860,146.118,233.826,16.052
1.910,-1.087,3.071,134.094,205.261,15.991
0.997,-0.691,3.405,116.333,130.066,58.167
0.911,-1.248,3.375,114.807,16.907,55.054
0.800,-1.265,2.698,119.568,42.175,23.621
0.603,-1.184,2.846,111.938,93.079,-1.404
2.389,-1.617,4.000,76.782,45.715,8.911
-0.069,-0.762,1.998,-18.066,-30.090,77.942
0.245,-1.416,2.869,69.397,40.283,50.842
0.071,-1.543,2.881,61.829,8.362,21.545
0.156,-1.338,3.064,36.072,-15.503,26.123
0.238,-1.543,3.149,19.104,-16.174,25.879
0.081,-1.622,3.023,-10.864,-15.564,17.273
-0.030,-1.619,2.768,-30.396,-39.673,4.517
-0.033,-1.578,2.502,-30.762,-60.425,-20.935
-0.037,-1.569,2.329,-24.292,-77.332,-46.509
0.020,-1.504,2.150,-24.353,-82.825,-65.796
0.225,-1.340,2.039,-35.950,-83.130,-73.608
0.068,-1.281,1.802,-56.580,-89.050,-59.692
0.105,-1.488,1.626,-74.951,-66.284,-70.557
0.054,-1.458,1.510,-93.384,-47.241,-90.698
0.089,-1.347,1.413,-98.633,-45.227,-106.262
0.231,-1.211,1.396,-88.745,-50.354,-118.286
0.225,-1.313,1.505,-76.599,-78.064,-129.150
0.270,-1.361,1.488,-67.078,-113.403,-146.606
0.281,-1.302,1.377,-62.134,-129.822,-162.476
0.254,-1.320,1.379,-60.547,-133.362,-175.476
0.171,-1.455,1.445,-66.040,-129.822,-182.373
0.074,-1.426,1.361,-80.383,-123.840,-188.782
0.049,-1.389,1.206,-92.407,-121.094,-201.904
-0.015,-1.301,0.992,-95.337,-121.460,-215.942
-0.054,-1.239,0.859,-87.585,-120.544,-228.516
-0.073,-1.254,0.877,-78.369,-114.014,-241.760
-0.175,-1.262,0.896,-71.533,-104.553,-259.827
-0.249,-1.203,0.798,-60.547,-105.469,-284.363
-0.328,-1.154,0.706,-47.974,-114.563,-305.603
-0.362,-1.111,0.526,-39.734,-115.417,-319.031
-0.283,-0.918,0.205,-38.940,-103.394,-327.454
-0.022,-0.631,-0.016,-35.522,-83.862,-329.041
0.398,-0.425,-0.004,-30.701,-57.190,-312.683
0.765,-0.297,0.066,-40.894,-22.888,-278.687
1.132,-0.082,0.119,-71.289,6.653,-240.356
1.304,0.097,0.169,-104.553,19.653,-195.923
1.176,0.175,-0.090,-120.544,16.418,-157.227
1.071,0.133,-0.485,-107.910,-2.319,-142.029
1.015,0.025,-0.580,-67.200,-26.855,-151.550
1.103,0.123,-0.562,-26.672,-35.156,-177.917
1.325,0.374,-0.534,1.709,-25.024,-196.289
1.547,0.474,-0.349,21.545,-4.211,-191.650
1.813,0.530,-0.151,22.766,21.545,-177.124
2.061,0.811,0.079,8.972,44.922,-158.508
2.073,0.997,0.223,-2.869,54.504,-134.827
1.914,1.010,0.315,-2.869,48.828,-113.037
1.719,1.001,0.336,3.174,34.424,-97.778
1.565,1.012,0.355,9.216,20.569,-84.167
1.400,0.961,0.433,13.855,12.817,-69.519
1.247,1.000,0.440,13.428,9.460,-58.777
1.068,1.038,0.432,10.010,6.775,-47.546
0.875,0.943,0.444,7.812,4.883,-31.494
0.690,0.795,0.494,7.385,5.127,-18.188
0.520,0.697,0.586,6.775,5.432,-10.254
0.349,0.587,0.647,7.263,4.150,-4.761
0.178,0.484,0.675,12.695,-1.892,-2.075
0.083,0.388,0.755,23.132,-11.658,-2.136
-0.013,0.322,0.809,31.006,-19.165,-1.770
-0.084,0.257,0.835,33.203,-20.996,0.427
-0.126,0.138,0.887,31.555,-19.836,4.333
-0.150,0.054,0.934,26.489,-14.893,7.263
-0.182,0.009,0.967,18.799,-7.141,9.827
-0.199,-0.017,0.994,11.536,-0.671,14.160
-0.223,-0.046,1.003,5.127,4.517,18.494
-0.230,-0.090,1.013,0.732,10.132,20.386
-0.248,-0.085,1.013,-1.648,11.841,17.395
-0.213,-0.042,0.996,0.610,9.705,12.268
-0.207,-0.023,0.981,6.226,5.676,9.705
-0.158,-0.014,0.978,8.484,5.615,8.118
-0.084,0.020,0.961,5.737,9.583,6.592
-0.152,0.064,0.952,2.502,8.850,7.812
0.152,0.064,0.065,-56.335,-44.373,5.432
0.121,0.154,-0.064,-57.617,-41.687,5.310
0.101,0.251,-0.258,-56.091,-41.748,3.967
0.077,0.358,-0.510,-49.377,-43.457,2.319
0.046,0.434,-0.730,-31.860,-46.265,1.770
0.044,0.472,-0.890,-5.493,-44.434,0.427
0.062,0.490,-1.027,23.560,-34.973,-1.038
0.085,0.467,-1.085,54.321,-20.569,-1.404
0.119,0.414,-1.053,82.458,-0.610,0.061
0.157,0.337,-0.991,103.455,21.667,2.808
0.239,0.230,-0.867,118.225,43.945,7.874
0.301,0.113,-0.674,127.747,63.538,15.991
0.358,0.026,-0.525,129.517,79.712,23.132
0.406,-0.059,-0.374,128.418,92.163,27.405
0.411,-0.181,-0.169,130.066,101.013,30.334
0.450,-0.283,0.036,132.019,111.694,32.471
0.474,-0.394,0.357,131.042,126.648,34.302
0.473,-0.483,0.714,125.671,142.395,37.170
0.521,-0.512,0.924,117.615,153.320,39.001
0.530,-0.604,1.296,116.638,156.189,38.574
0.503,-0.661,1.674,117.004,154.724,36.865
0.529,-0.713,1.953,109.741,151.001,34.668
0.542,-0.716,2.214,96.436,139.465,33.997
0.549,-0.605,2.280,79.895,119.446,34.058
0.517,-0.486,2.178,63.843,95.093,33.142
0.479,-0.373,2.053,54.749,69.031,33.142
0.509,-0.278,1.823,52.612,54.199,35.278
0.473,-0.294,1.747,54.626,49.988,37.964
0.445,-0.365,1.814,56.335,61.768,42.908
0.539,-0.200,2.033,51.453,63.660,48.706
0.415,-0.344,1.987,39.429,28.137,68.359
0.367,-0.436,1.805,48.950,44.434,51.331
0.197,-0.475,1.812,53.894,47.913,43.274
0.169,-0.650,1.986,61.890,54.199,27.466
0.261,-0.728,2.316,61.096,62.866,28.748
0.130,-0.803,2.509,44.250,46.082,42.664
0.119,-0.975,2.597,27.527,42.236,47.424
-0.029,-1.009,2.697,15.625,33.936,43.701
-0.078,-1.098,2.716,8.057,13.428,39.429
-0.161,-1.281,2.771,3.052,-4.639,31.189
-0.195,-1.367,2.780,-5.798,-15.503,19.409
-0.225,-1.356,2.675,-18.372,-29.053,4.944
-0.217,-1.379,2.524,-25.024,-44.373,-8.179
-0.116,-1.357,2.341,-28.625,-56.763,-20.203
-0.229,-1.325,2.184,-35.339,-67.383,-27.710
-0.175,-1.366,1.983,-44.434,-67.322,-35.339
-0.272,-1.414,1.872,-52.307,-64.453,-48.462
-0.298,-1.421,1.748,-57.251,-55.786,-64.636
-0.309,-1.443,1.718,-58.716,-44.128,-80.139
-0.258,-1.485,1.753,-61.096,-41.138,-91.064
-0.231,-1.489,1.739,-61.707,-45.166,-104.370
-0.154,-1.435,1.713,-61.035,-55.542,-119.507
-0.100,-1.396,1.660,-59.265,-71.716,-132.629
-0.052,-1.397,1.582,-57.556,-88.989,-144.409
0.010,-1.323,1.447,-60.547,-98.328,-154.785
0.056,-1.231,1.335,-64.880,-102.539,-163.330
0.077,-1.223,1.251,-64.819,-105.957,-170.471
0.106,-1.110,1.126,-60.669,-109.680,-180.542
0.114,-0.958,1.021,-54.688,-113.403,-189.758
0.120,-0.892,0.959,-46.936,-113.098,-192.017
0.122,-0.843,0.939,-39.673,-108.826,-191.223
0.098,-0.759,0.843,-26.855,-110.168,-194.580
0.140,-0.606,0.661,-9.521,-117.676,-197.632
0.177,-0.439,0.505,7.568,-116.333,-192.993
0.218,-0.442,0.490,18.250,-96.619,-178.101
0.217,-0.722,0.615,14.038,-59.631,-164.795
0.304,-0.528,0.543,-7.751,-27.893,-171.326
0.373,-0.259,0.516,-22.766,-17.395,-175.903
0.433,-0.160,0.533,-14.587,-16.296,-165.100
0.561,-0.107,0.595,-2.441,-21.606,-148.254
0.645,0.042,0.554,3.174,-31.372,-128.906
0.636,0.068,0.511,5.615,-38.391,-107.971
0.684,0.135,0.390,5.371,-41.260,-92.957
0.633,0.191,0.272,7.080,-41.870,-80.017
0.531,0.265,0.046,13.733,-34.546,-69.824
0.499,0.237,0.013,27.588,-15.381,-61.035
0.435,-0.067,0.118,33.203,10.315,-54.565
0.476,-0.045,0.103,16.113,36.438,-67.505
0.674,0.219,0.147,-4.944,63.965,-90.332
0.858,0.460,0.306,-15.564,88.928,-94.238
1.026,0.498,0.463,-18.188,99.060,-84.167
1.079,0.477,0.566,-16.541,91.248,-73.547
1.049,0.492,0.665,-15.320,73.608,-67.078
1.031,0.545,0.618,-17.029,55.725,-67.810
1.017,0.638,0.529,-16.785,37.048,-69.153
0.940,0.707,0.494,-15.137,24.353,-65.918
0.851,0.751,0.473,-15.076,20.630,-60.547
0.752,0.787,0.450,-18.311,20.813,-54.077
0.649,0.807,0.439,-22.522,23.376,-50.171
0.583,0.836,0.415,-20.996,25.574,-46.509
0.547,0.845,0.430,-10.437,21.729,-39.246
0.480,0.792,0.427,2.197,13.000,-26.917
0.401,0.678,0.446,11.292,5.371,-13.733
0.296,0.509,0.503,17.456,2.014,-4.761
0.214,0.385,0.564,23.132,1.343,-3.784
0.151,0.280,0.646,31.067,-0.305,-6.531
0.106,0.197,0.743,37.231,-0.366,-5.432
0.091,0.118,0.786,34.607,3.662,-0.305
0.038,0.044,0.811,24.292,9.033,5.249
0.009,0.028,0.810,15.015,12.878,7.874
-0.015,-0.010,0.864,13.489,12.695,10.071
-0.035,-0.006,0.888,16.235,9.705,12.146
-0.049,-0.000,0.911,20.264,6.042,16.724
-0.084,-0.084,0.960,20.203,4.150,24.780
-0.152,-0.184,0.947,15.137,6.165,27.771
-0.196,-0.236,0.937,10.071,8.789,23.926
-0.215,-0.264,0.975,9.766,10.620,17.822
-0.189,-0.276,1.021,11.047,10.254,11.597
-0.169,-0.285,1.054,9.705,9.644,8.057
-0.147,-0.273,1.063,4.089,10.620,5.127
-0.096,-0.223,1.027,-2.747,11.597,1.465
-0.016,-0.140,0.985,-6.165,10.376,-0.061
0.026,-0.074,0.962,-3.723,6.897,3.784
0.034,-0.040,0.939,0.122,7.996,8.972
0.016,-0.023,0.931,0.671,6.409,14.526
0.002,-0.038,0.901,1.587,9.644,15.747
-0.013,-0.078,0.929,5.615,9.949,16.113
0.002,-0.128,0.993,13.977,9.338,13.428
0.033,-0.143,1.063,20.142,9.399,8.423
0.095,0.003,1.062,-16.296,-7.019,-2.075
0.091,-0.008,1.060,-18.677,-6.226,-2.441
0.081,-0.020,1.059,-21.301,-5.493,-2.686
0.082,-0.014,1.047,-24.780,-5.493,-3.418
0.071,-0.020,1.035,-27.649,-5.920,-5.432
0.074,-0.019,1.026,-29.968,-6.592,-7.751
0.070,-0.015,1.001,-32.349,-7.751,-10.620
0.076,-0.007,0.983,-35.095,-9.399,-12.268
0.114,-0.003,0.939,-39.673,-9.888,-13.611
0.126,0.007,0.923,-44.861,-9.888,-12.878
0.147,0.021,0.891,-52.124,-9.399,-10.010
0.194,0.018,0.850,-61.584,-9.888,-5.737
0.231,0.022,0.812,-71.228,-11.536,-1.648
0.247,0.062,0.745,-80.872,-16.357,2.136
0.242,0.110,0.664,-87.708,-25.940,5.432
0.225,0.163,0.551,-91.431,-40.955,8.362
0.216,0.199,0.404,-92.712,-59.204,11.902
0.210,0.198,0.214,-92.834,-77.393,15.381
0.203,0.183,0.024,-92.224,-91.553,18.494
0.187,0.208,-0.174,-92.346,-102.417,20.142
0.105,0.264,-0.416,-93.628,-106.323,22.583
0.115,0.326,-0.727,-87.280,-102.295,23.499
0.080,0.393,-0.951,-65.796,-89.661,23.926
0.002,0.426,-1.071,-36.804,-68.115,23.254
-0.038,0.406,-1.158,-6.897,-38.696,17.578
0.000,0.390,-1.214,27.588,-10.498,9.155
0.067,0.384,-1.225,68.359,13.550,2.319
0.174,0.312,-1.161,109.680,37.842,-0.977
0.276,0.223,-1.069,142.944,63.171,-1.404
0.438,0.117,-0.925,167.358,90.576,-0.977
0.537,0.057,-0.771,183.105,112.732,-0.549
0.657,0.005,-0.610,193.176,128.784,-1.831
0.802,-0.042,-0.383,202.393,138.306,-0.305
0.881,-0.118,-0.171,208.862,138.733,9.705
0.927,-0.226,0.027,211.975,141.602,24.841
1.000,-0.436,0.420,213.135,154.663,42.664
1.002,-0.761,1.005,208.679,174.683,61.462
0.995,-0.949,1.527,186.279,197.021,73.303
0.976,-0.985,2.017,153.137,212.891,75.989
0.988,-0.966,2.418,125.305,213.196,76.050
0.929,-0.879,2.604,104.248,195.129,74.707
0.818,-0.871,2.662,92.896,163.391,71.350
0.797,-0.841,2.644,91.492,135.010,65.491
0.718,-0.722,2.502,88.684,101.807,58.777
1.215,-0.775,2.472,85.999,80.750,57.190
0.578,-0.463,2.481,73.547,31.982,77.637
0.460,-0.645,2.252,66.650,6.592,92.346
0.221,-0.823,1.894,66.772,8.728,61.890
0.244,-0.744,1.775,75.867,63.110,34.546
0.337,-0.845,2.103,80.505,62.805,32.043
0.263,-0.847,2.266,68.115,37.476,39.734
0.310,-1.016,2.349,56.152,41.870,40.588
0.357,-0.972,2.534,46.509,44.861,30.945
0.449,-1.062,2.751,35.034,26.733,36.011
0.493,-1.168,2.900,19.165,4.089,41.748
0.411,-1.270,2.933,3.784,-16.235,36.926
0.318,-1.318,2.821,-7.141,-39.124,23.193
0.218,-1.342,2.637,-12.573,-61.707,8.301
0.140,-1.360,2.459,-14.465,-77.026,-6.592
0.146,-1.374,2.328,-19.958,-84.412,-20.447
0.056,-1.342,2.104,-32.104,-89.417,-28.687
-0.023,-1.389,1.976,-44.189,-84.106,-40.955
-0.114,-1.466,1.834,-55.542,-78.247,-52.429
-0.114,-1.514,1.744,-66.895,-59.998,-65.002
-0.119,-1.548,1.749,-78.735,-41.992,-77.087
-0.097,-1.580,1.765,-83.252,-36.987,-91.431
-0.068,-1.583,1.716,-77.332,-48.462,-111.389
-0.069,-1.539,1.661,-63.477,-75.623,-133.423
-0.037,-1.607,1.586,-47.668,-104.675,-154.480
-0.010,-1.638,1.486,-39.978,-125.305,-174.500
0.003,-1.600,1.414,-37.231,-137.695,-194.275
0.065,-1.562,1.319,-34.790,-143.494,-209.167
0.122,-1.464,1.170,-33.936,-144.714,-218.262
0.163,-1.326,1.007,-37.720,-139.099,-220.154
0.186,-1.161,0.787,-44.861,-125.000,-216.919
0.164,-1.065,0.645,-46.875,-106.445,-208.923
0.142,-1.148,0.614,-43.762,-82.703,-201.233
0.188,-1.148,0.524,-45.593,-60.425,-204.407
0.187,-1.042,0.474,-50.415,-44.434,-214.600
0.196,-0.939,0.388,-50.293,-33.386,-225.708
0.312,-0.777,0.292,-40.283,-29.236,-239.197
0.501,-0.565,0.297,-20.325,-35.217,-244.385
0.601,-0.352,0.305,-1.709,-42.480,-234.680
0.717,-0.230,0.256,5.859,-45.044,-213.196
0.768,-0.043,0.159,3.601,-43.213,-181.213
0.839,0.111,0.188,0.488,-33.630,-144.775
0.900,0.139,0.075,-4.517,-20.813,-108.948
0.838,0.119,-0.055,-13.123,-6.714,-81.665
0.638,0.012,-0.122,-22.278,11.780,-64.880
0.500,-0.035,-0.357,-39.368,31.006,-60.425
0.620,0.051,-0.513,-50.110,52.734,-65.552
0.713,0.189,-0.402,-44.678,76.294,-72.144
0.939,0.364,-0.327,-38.025,100.403,-81.482
1.166,0.515,-0.124,-33.142,116.333,-86.487
1.301,0.658,0.040,-30.640,120.972,-81.421
1.405,0.764,0.229,-33.081,116.943,-76.843
1.500,0.818,0.407,-29.785,107.727,-73.425
1.440,0.897,0.601,-24.841,91.248,-68.665
1.286,0.996,0.707,-24.902,70.435,-66.711
1.125,1.064,0.667,-27.588,48.889,-68.542
0.977,1.165,0.575,-29.358,28.992,-68.359
0.852,1.213,0.508,-31.677,16.052,-60.486
0.792,1.195,0.452,-35.217,13.000,-47.241
0.718,1.175,0.423,-34.607,14.954,-32.410
0.659,1.098,0.458,-26.855,15.869,-18.555
0.592,0.988,0.531,-16.907,16.174,-5.859
0.519,0.829,0.633,-6.653,14.893,3.540
0.491,0.694,0.728,1.465,11.475,11.658
0.373,0.545,0.744,9.338,4.639,17.273
0.231,0.377,0.781,21.118,-5.859,19.104
0.176,0.290,0.757,33.752,-16.052,16.174
0.158,0.215,0.791,46.448,-23.804,13.916
0.142,0.143,0.857,48.523,-23.682,17.639
0.100,0.066,0.906,35.339,-16.052,24.902
0.058,-0.002,0.911,19.775,-5.249,31.250
0.047,-0.044,0.890,5.066,4.028,36.499
0.011,-0.080,0.912,-1.099,8.179,40.100
-0.007,-0.123,0.929,-2.808,10.498,40.161
-0.033,-0.163,0.953,-2.625,11.841,37.170
-0.009,0.108,1.011,-37.048,-51.758,-5.798
-0.016,0.113,0.992,-40.222,-55.969,-5.066
-0.012,0.108,0.955,-42.603,-60.303,-4.211
-0.011,0.108,0.902,-43.823,-64.575,-4.150
-0.019,0.117,0.859,-43.945,-70.007,-5.432
0.006,0.119,0.789,-44.373,-76.172,-6.165
-0.015,0.137,0.652,-45.410,-80.200,-6.714
0.005,0.136,0.475,-42.236,-83.130,-7.507
0.044,0.179,0.333,-35.583,-85.388,-7.690
0.103,0.186,0.224,-30.457,-83.313,-6.775
0.187,0.220,0.066,-30.701,-75.439,-5.432
0.214,0.271,-0.160,-35.706,-65.125,-2.380
0.195,0.347,-0.413,-41.504,-52.979,2.625
0.160,0.454,-0.724,-44.067,-40.283,6.287
0.141,0.576,-1.069,-35.156,-27.527,5.615
0.167,0.655,-1.303,-9.949,-15.991,3.113
0.213,0.667,-1.416,25.391,-0.916,1.526
0.300,0.619,-1.382,59.937,23.132,4.944
0.372,0.513,-1.261,86.975,50.293,10.254
0.455,0.406,-1.118,104.614,72.205,16.418
0.512,0.295,-1.000,116.943,87.769,25.696
0.517,0.161,-0.933,129.944,98.572,33.630
0.573,0.024,-0.818,148.865,106.262,36.865
0.643,-0.087,-0.595,167.969,113.037,39.001
0.671,-0.184,-0.372,177.368,123.352,42.969
0.688,-0.296,-0.119,177.002,138.428,49.622
0.662,-0.444,0.157,172.852,155.640,56.274
0.654,-0.577,0.459,171.082,172.119,59.326
0.710,-0.738,0.900,171.387,185.730,61.279
0.677,-0.877,1.333,169.434,194.397,61.157
0.641,-0.949,1.700,156.799,198.853,58.716
0.681,-0.900,1.919,134.033,200.989,58.350
0.716,-0.819,1.999,113.098,196.899,55.420
0.702,-0.689,1.998,98.206,184.509,49.744
0.738,-0.618,1.996,92.163,173.584,49.011
0.733,-0.578,1.979,90.332,162.781,51.880
0.739,-0.563,2.000,81.177,152.771,57.129
0.670,-0.614,2.048,72.205,147.278,61.096
0.646,-0.640,2.081,69.458,145.935,60.364
1.080,-0.744,2.395,70.984,132.812,55.298
1.031,-0.602,2.794,68.604,73.730,71.350
0.414,-0.761,2.704,76.172,-0.793,78.735
0.379,-1.071,2.495,89.050,-7.629,41.626
0.378,-0.987,2.498,88.623,74.890,22.217
0.312,-1.211,2.723,72.144,102.051,14.038
0.348,-1.230,3.104,35.339,67.261,27.039
0.498,-1.269,3.078,4.639,26.978,44.739
0.334,-1.316,3.041,-7.324,30.823,42.419
0.259,-1.392,3.048,-15.991,4.272,24.719
0.276,-1.425,2.936,-27.405,-13.428,15.320
0.276,-1.398,2.883,-35.278,-30.762,0.366
0.213,-1.419,2.717,-45.044,-58.167,-8.789
0.171,-1.414,2.496,-52.429,-86.609,-25.818
0.031,-1.411,2.273,-51.697,-112.122,-46.509
-0.060,-1.446,2.036,-46.692,-130.371,-66.711
-0.087,-1.494,1.877,-44.983,-130.615,-85.754
-0.138,-1.468,1.731,-49.927,-125.366,-102.173
-0.140,-1.456,1.608,-59.814,-117.493,-116.760
-0.168,-1.497,1.552,-68.054,-110.229,-131.714
-0.175,-1.501,1.503,-70.801,-103.210,-149.048
-0.123,-1.444,1.384,-71.411,-100.586,-167.114
-0.064,-1.375,1.304,-70.251,-98.816,-182.312
0.007,-1.286,1.199,-66.223,-99.854,-196.045
0.085,-1.208,1.091,-56.763,-110.901,-209.290
0.134,-1.131,1.010,-42.664,-127.136,-219.727
0.170,-1.048,0.944,-28.625,-137.390,-224.792
0.220,-0.969,0.840,-22.278,-138.733,-224.609
0.263,-0.979,0.781,-20.569,-129.700,-219.788
0.275,-0.967,0.726,-21.240,-112.732,-217.773
0.309,-0.838,0.678,-25.208,-94.971,-218.628
0.321,-0.807,0.712,-28.564,-79.346,-217.712
0.387,-0.752,0.745,-29.663,-68.542,-218.262
0.469,-0.624,0.713,-34.119,-64.148,-219.177
0.520,-0.479,0.622,-37.415,-64.636,-213.989
0.516,-0.406,0.541,-37.231,-59.570,-203.735
0.480,-0.306,0.385,-38.025,-52.002,-194.458
0.456,-0.229,0.269,-34.668,-47.852,-184.998
0.513,-0.156,0.187,-30.273,-39.795,-176.636
0.697,0.046,0.132,-26.062,-28.259,-168.762
0.816,0.235,0.163,-21.423,-17.700,-149.780
0.847,0.261,0.109,-21.912,-4.883,-122.192
0.838,0.221,-0.012,-25.818,5.432,-96.619
0.756,0.169,-0.135,-26.672,13.123,-79.224
0.736,0.174,-0.230,-23.315,26.672,-74.585
0.799,0.201,-0.211,-15.137,44.983,-80.200
0.914,0.329,-0.103,-3.662,63.049,-87.708
1.070,0.483,0.044,7.141,76.233,-91.736
1.130,0.527,0.250,13.916,83.862,-90.027
1.141,0.556,0.521,14.526,84.717,-90.027
1.176,0.671,0.666,7.446,75.195,-92.712
1.250,0.859,0.665,-1.587,57.556,-92.834
1.174,1.023,0.602,-7.568,37.537,-86.731
1.041,1.087,0.548,-8.850,23.315,-73.914
0.941,1.071,0.512,-6.958,15.015,-59.204
0.859,1.057,0.529,-4.822,10.986,-46.448
0.800,1.052,0.541,-2.502,11.047,-34.302
0.721,0.997,0.562,1.160,12.207,-18.616
0.607,0.877,0.588,4.517,10.742,-1.648
0.482,0.691,0.655,7.690,8.850,12.146
0.325,0.505,0.754,13.672,5.737,18.494
0.228,0.378,0.830,20.508,-1.831,14.648
0.164,0.317,0.790,26.611,-13.855,6.897
0.113,0.262,0.732,29.907,-22.644,5.005
0.043,0.197,0.693,28.870,-20.325,8.606
-0.021,0.132,0.707,24.597,-13.184,14.648
-0.063,0.049,0.750,19.836,-6.165,20.752
-0.086,-0.031,0.822,15.991,0.854,25.513
-0.102,-0.101,0.897,11.719,7.141,26.672
-0.120,-0.113,0.941,7.263,9.888,23.193
-0.102,-0.110,0.947,4.578,9.216,19.531
-0.106,-0.103,0.929,2.197,8.789,17.944
-0.148,-0.125,0.926,0.427,10.071,17.700
-0.177,-0.136,0.927,1.465,11.108,17.578
-0.184,-0.140,0.926,3.540,9.399,16.296
-0.151,-0.122,0.924,5.798,6.226,15.137
-0.089,-0.122,0.918,7.568,4.578,16.724
-0.037,-0.117,0.961,9.338,10.071,17.822
0.011,-0.131,1.033,8.240,9.155,20.203
0.041,-0.151,1.100,6.470,12.207,18.738
0.213,0.027,0.964,-36.011,-31.799,-4.150
0.218,0.031,0.922,-38.513,-36.987,-3.784
0.218,0.034,0.884,-39.978,-43.457,-3.357
0.213,0.016,0.865,-41.016,-51.514,-2.869
0.213,-0.003,0.842,-43.213,-62.012,-2.869
0.235,-0.028,0.817,-45.837,-74.951,-4.028
0.259,-0.025,0.770,-47.119,-92.285,-5.615
0.283,0.004,0.685,-47.913,-110.474,-7.996
0.305,0.042,0.548,-48.828,-127.563,-9.155
0.335,0.103,0.410,-50.903,-138.062,-7.812
0.321,0.137,0.296,-56.152,-141.663,-3.296
0.348,0.165,0.131,-65.125,-142.029,6.531
0.359,0.188,-0.059,-77.759,-139.771,20.142
0.316,0.229,-0.248,-88.379,-130.981,33.081
0.338,0.253,-0.547,-96.741,-120.850,43.823
0.256,0.329,-0.889,-97.229,-109.131,50.598
0.113,0.401,-1.224,-81.360,-93.018,56.946
0.066,0.421,-1.512,-42.358,-67.383,55.542
0.055,0.413,-1.671,12.756,-34.607,44.556
0.114,0.371,-1.639,74.219,1.770,28.320
0.280,0.306,-1.487,132.141,39.490,12.878
0.431,0.235,-1.280,178.528,71.777,1.831
0.636,0.181,-1.013,209.351,97.839,-1.099
0.785,0.099,-0.684,223.450,115.784,10.193
0.956,-0.075,-0.312,224.365,126.892,35.034
1.002,-0.220,0.008,212.524,134.644,64.392
0.919,-0.437,0.376,196.411,146.606,90.088
0.815,-0.665,0.681,179.687,160.522,108.398
0.669,-0.826,0.986,166.809,172.058,113.159
0.500,-0.928,1.304,161.438,176.025,106.567
0.427,-0.918,1.494,159.302,171.387,94.543
0.361,-0.893,1.663,159.973,158.203,82.458
0.309,-0.965,1.922,163.086,146.973,74.646
0.266,-0.987,2.138,157.532,141.663,72.205
0.302,-0.975,2.330,139.160,140.930,72.327
0.288,-1.001,2.581,118.347,145.325,74.585
0.226,-0.977,2.705,93.384,137.817,78.247
0.337,-0.958,2.674,68.909,128.967,78.247
0.315,-0.574,3.061,52.612,91.064,84.412
0.278,-0.819,3.014,44.067,-20.630,112.488
0.075,-1.286,2.297,57.556,-34.302,55.237
0.070,-0.905,2.313,67.993,74.463,18.982
0.004,-1.015,2.488,64.758,87.158,12.329
0.193,-1.015,2.762,39.795,58.533,16.235
0.237,-1.034,2.863,18.127,38.818,34.241
0.232,-1.107,2.846,0.793,39.063,33.813
0.168,-1.152,2.910,-15.198,27.954,32.104
0.178,-1.282,2.894,-30.212,5.432,35.706
0.164,-1.366,2.833,-41.748,-7.568,28.137
0.063,-1.365,2.711,-49.622,-23.315,16.174
0.059,-1.382,2.495,-55.054,-47.180,-0.977
0.005,-1.356,2.337,-53.162,-73.181,-18.433
-0.014,-1.381,2.162,-50.171,-90.820,-29.541
-0.088,-1.446,2.081,-48.462,-98.145,-48.828
-0.148,-1.486,1.961,-49.683,-102.234,-70.190
-0.142,-1.507,1.958,-54.626,-86.365,-86.304
-0.170,-1.512,1.972,-64.514,-73.853,-97.656
-0.128,-1.545,1.961,-75.317,-70.679,-107.727
-0.086,-1.537,1.954,-80.322,-75.256,-119.568
-0.074,-1.488,1.884,-76.599,-90.271,-134.644
-0.056,-1.456,1.776,-69.702,-113.403,-149.719
-0.067,-1.471,1.694,-63.599,-134.338,-161.438
-0.063,-1.438,1.538,-61.157,-147.644,-174.622
-0.062,-1.372,1.400,-58.777,-152.466,-187.073
-0.050,-1.302,1.237,-57.983,-153.198,-198.425
-0.066,-1.227,1.088,-53.406,-150.330,-208.374
-0.055,-1.140,0.906,-42.542,-145.813,-218.567
-0.044,-1.045,0.790,-30.334,-136.963,-226.807
-0.019,-1.002,0.693,-21.545,-123.047,-232.910
0.046,-0.987,0.583,-19.409,-108.704,-239.868
0.153,-0.846,0.492,-24.048,-91.125,-247.742
0.315,-0.595,0.375,-29.541,-71.350,-254.089
0.477,-0.340,0.286,-32.654,-57.129,-246.521
0.606,-0.148,0.183,-37.292,-48.035,-224.854
0.705,-0.031,0.106,-44.617,-43.823,-196.106
0.764,0.084,-0.095,-51.270,-44.373,-165.039
0.768,0.187,-0.443,-45.471,-50.842,-139.038
0.744,0.249,-0.635,-20.874,-48.401,-117.920
0.821,0.286,-0.700,6.653,-26.733,-109.070
0.803,0.319,-0.666,33.081,1.953,-107.117
0.948,0.372,-0.607,52.917,29.236,-100.586
1.145,0.401,-0.428,63.232,62.439,-101.379
1.320,0.551,-0.236,59.448,95.337,-104.675
1.507,0.714,0.055,48.035,116.943,-101.074
1.546,0.883,0.276,37.415,120.911,-88.318
1.516,0.980,0.398,26.611,111.389,-67.322
1.325,0.952,0.482,15.137,94.910,-42.358
1.137,0.833,0.463,3.235,82.458,-23.193
0.954,0.733,0.476,-0.061,72.754,-15.869
0.795,0.692,0.499,4.272,63.171,-20.203
0.676,0.680,0.520,11.963,50.720,-29.297
0.601,0.676,0.530,19.165,37.903,-35.828
0.566,0.692,0.571,24.597,27.039,-35.522
0.529,0.681,0.604,25.757,20.569,-28.564
0.477,0.597,0.653,23.682,18.433,-16.235
0.405,0.491,0.687,19.958,18.494,-4.272
0.326,0.400,0.747,16.907,18.188,4.700
0.253,0.304,0.800,13.855,16.418,12.390
0.174,0.176,0.848,10.925,13.245,19.470
0.088,0.046,0.865,8.484,9.094,23.010
0.015,-0.034,0.866,10.864,1.953,18.921
-0.021,-0.065,0.871,18.982,-6.226,9.399
-0.005,-0.055,0.879,27.283,-13.367,0.488
0.043,-0.034,0.903,30.273,-13.672,-2.808
0.060,-0.054,0.956,25.757,-6.775,1.099
0.045,-0.107,1.018,16.907,2.869,8.850
0.030,-0.167,1.080,7.812,11.780,15.015
0.011,-0.189,1.109,-0.916,19.104,18.311
0.011,-0.207,1.128,-7.141,19.531,18.188
-0.020,-0.206,1.135,-11.597,16.724,17.029
-0.036,-0.197,1.099,-14.587,14.648,16.052
-0.051,-0.178,1.069,-15.686,11.047,13.794
-0.064,-0.177,1.032,-16.479,13.184,10.620
-0.062,-0.168,1.001,-15.259,10.254,7.263
-0.026,-0.119,0.971,-12.939,7.080,5.005
-0.001,-0.105,0.975,-10.559,6.104,6.348
0.012,-0.114,0.969,-8.850,10.681,6.348
0.003,-0.106,1.049,-9.521,7.263,9.277
0.017,-0.123,1.064,-9.155,5.920,7.568
0.085,-0.005,0.943,-23.865,-2.441,-17.029
0.101,0.005,0.938,-29.358,-3.723,-19.165
0.106,0.029,0.913,-35.583,-3.296,-19.714
0.137,0.031,0.872,-40.344,-3.296,-20.935
0.158,0.065,0.835,-44.250,-6.836,-22.095
0.166,0.085,0.803,-46.875,-6.287,-20.264
0.174,0.101,0.778,-49.500,-7.141,-17.395
0.202,0.072,0.745,-53.345,-11.597,-16.602
0.213,0.053,0.720,-58.655,-17.273,-15.930
0.257,0.042,0.687,-65.613,-21.729,-12.695
0.281,0.059,0.629,-75.623,-29.602,-9.338
0.293,0.052,0.510,-86.914,-40.344,-5.554
0.339,0.055,0.373,-99.121,-47.241,-2.991
0.345,0.129,0.181,-104.004,-52.490,-3.052
0.350,0.250,0.019,-98.328,-59.692,-3.052
0.346,0.332,-0.135,-85.938,-67.017,-2.625
0.362,0.389,-0.316,-68.604,-71.594,-1.648
0.369,0.426,-0.465,-46.387,-75.378,-0.061
0.370,0.442,-0.608,-22.949,-76.721,2.258
0.378,0.435,-0.716,-1.953,-66.406,8.362
0.348,0.407,-0.767,18.188,-46.570,17.212
0.346,0.403,-0.834,34.241,-23.437,24.536
0.348,0.411,-0.873,51.025,0.183,31.006
0.374,0.400,-0.813,73.608,22.217,38.147
0.407,0.303,-0.693,100.098,34.973,46.448
0.429,0.146,-0.596,122.681,41.626,54.688
0.484,0.006,-0.501,140.625,49.194,60.608
0.517,-0.088,-0.342,157.104,57.922,63.782
0.528,-0.132,-0.179,169.067,67.444,69.641
0.534,-0.219,0.020,177.490,78.674,76.660
0.527,-0.367,0.248,185.852,87.036,83.679
0.553,-0.479,0.476,191.528,94.971,88.867
0.531,-0.601,0.778,195.374,107.605,93.262
0.514,-0.732,1.131,195.190,121.582,96.802
0.504,-0.810,1.453,187.012,135.315,97.168
0.515,-0.832,1.720,174.194,143.921,95.947
0.521,-0.826,1.974,164.246,143.799,92.346
0.499,-0.839,2.238,160.889,134.827,87.219
0.512,-0.873,2.482,156.616,115.784,82.886
0.461,-0.975,2.743,150.085,95.825,84.045
0.498,-1.018,2.886,134.766,89.172,86.182
0.372,-0.766,3.134,108.948,67.200,95.093
0.268,-1.159,3.149,90.942,26.978,118.408
0.054,-1.309,2.884,85.144,19.653,67.566
-0.012,-1.087,2.762,78.918,51.636,39.429
-0.042,-1.037,2.924,69.702,16.968,47.546
0.020,-1.250,2.902,58.838,-0.671,47.302
-0.074,-1.296,2.937,41.626,8.667,40.100
-0.099,-1.291,2.875,20.264,0.244,34.790
-0.119,-1.344,2.856,5.005,-10.559,33.325
-0.163,-1.443,2.805,-10.437,-17.944,26.245
-0.224,-1.444,2.661,-30.457,-24.841,15.198
-0.204,-1.418,2.522,-48.096,-32.166,2.258
-0.198,-1.459,2.368,-57.129,-52.917,-9.644
-0.227,-1.423,2.193,-57.434,-74.646,-32.166
-0.262,-1.407,2.015,-50.171,-99.426,-59.448
-0.197,-1.395,1.856,-42.542,-108.643,-82.520
-0.222,-1.355,1.795,-40.527,-108.582,-97.351
-0.199,-1.331,1.644,-47.913,-104.858,-105.530
-0.189,-1.307,1.531,-55.725,-97.534,-111.938
-0.189,-1.293,1.462,-62.012,-84.717,-117.798
-0.166,-1.375,1.458,-69.458,-72.327,-123.718
-0.137,-1.428,1.489,-78.308,-59.692,-134.644
-0.086,-1.318,1.419,-80.627,-64.392,-154.053
0.012,-1.200,1.293,-72.754,-87.341,-173.645
0.047,-1.152,1.224,-57.129,-110.291,-188.477
0.070,-1.110,1.117,-42.419,-126.953,-199.463
0.083,-1.030,0.995,-31.433,-138.794,-207.458
0.090,-0.951,0.867,-24.719,-140.442,-210.632
0.092,-0.901,0.778,-18.188,-132.935,-210.632
0.113,-0.886,0.763,-13.550,-116.577,-209.045
0.155,-0.894,0.751,-14.587,-104.858,-206.543
0.190,-0.872,0.694,-24.109,-93.262,-204.407
0.179,-0.893,0.635,-34.790,-77.087,-205.750
0.184,-0.788,0.484,-44.373,-62.134,-215.088
0.179,-0.658,0.418,-45.166,-55.603,-228.882
0.274,-0.497,0.305,-44.800,-51.270,-237.915
0.381,-0.380,0.242,-38.269,-46.753,-241.333
0.498,-0.240,0.172,-31.494,-47.424,-237.061
0.598,-0.111,0.063,-31.677,-43.030,-226.318
0.678,0.029,-0.056,-36.560,-29.541,-208.862
0.719,0.155,-0.159,-41.565,-14.954,-183.533
0.741,0.188,-0.263,-45.776,-0.610,-157.715
0.787,0.212,-0.326,-44.739,11.719,-135.437
0.916,0.229,-0.374,-37.659,28.809,-122.620
1.000,0.348,-0.361,-24.353,42.969,-124.023
1.143,0.524,-0.294,-2.930,51.208,-130.676
1.298,0.706,-0.186,24.841,54.688,-129.944
1.405,0.848,-0.062,51.880,55.359,-121.094
1.431,0.903,0.134,74.341,59.204,-104.614
1.395,0.871,0.391,86.365,58.228,-82.764
1.383,0.836,0.614,80.322,60.059,-62.439
1.259,0.854,0.768,61.951,62.012,-47.424
1.108,0.875,0.808,41.748,56.213,-33.813
0.979,0.852,0.769,26.978,47.607,-18.860
0.858,0.808,0.759,21.973,37.231,-5.188
0.721,0.719,0.815,22.949,29.053,6.531
0.627,0.611,0.840,21.301,23.987,16.907
0.591,0.556,0.825,18.372,22.156,24.353
0.489,0.487,0.860,15.625,20.264,28.809
0.374,0.405,0.905,9.644,19.348,33.386
0.283,0.304,0.947,1.953,22.644,38.940
0.203,0.137,1.005,-4.883,19.714,40.344
0.109,0.046,1.019,-12.390,13.916,33.386
0.052,0.001,1.012,-15.930,6.348,23.499
-0.022,-0.018,1.002,-17.517,2.197,17.883
-0.092,-0.053,0.990,-13.184,-3.540,10.986
-0.118,-0.061,0.968,-4.883,-10.742,5.249
-0.138,-0.070,0.966,2.075,-13.062,2.441
-0.175,-0.067,0.953,3.418,-13.916,3.235
-0.155,-0.067,0.947,-2.014,-3.418,7.568
-0.167,-0.078,0.943,-5.981,6.653,12.695
-0.180,-0.090,0.942,-6.958,11.169,17.212
-0.212,-0.101,0.936,-6.775,14.893,20.203
-0.205,-0.099,0.953,-7.080,20.386,21.545
-0.162,-0.141,0.955,-7.080,21.545,22.339
-0.202,-0.131,0.988,-5.188,23.315,18.127
-0.165,-0.140,0.999,-2.136,17.395,14.221
-0.141,-0.111,0.986,3.296,15.320,6.775
0.088,0.096,0.915,-11.353,-16.357,-4.333
0.092,0.087,0.913,-10.498,-14.465,-4.883
0.093,0.097,0.903,-11.108,-14.771,-5.371
0.093,0.121,0.878,-12.756,-16.663,-5.615
0.093,0.130,0.850,-14.771,-14.343,-4.456
0.094,0.135,0.820,-16.113,-13.306,-3.052
0.085,0.128,0.818,-17.334,-7.996,-1.221
0.092,0.110,0.833,-17.395,-7.629,0.366
0.102,0.108,0.842,-17.395,-10.681,0.488
0.104,0.117,0.827,-19.104,-13.428,-0.305
0.115,0.128,0.781,-21.179,-15.869,-0.732
0.125,0.141,0.735,-22.339,-17.334,-0.427
0.124,0.159,0.702,-23.376,-18.494,0.061
0.139,0.156,0.674,-23.804,-23.682,0.427
0.162,0.152,0.633,-23.743,-31.189,0.061
0.197,0.150,0.568,-22.522,-42.847,-0.427
0.245,0.149,0.482,-21.240,-57.068,-0.793
0.304,0.158,0.376,-22.034,-69.763,0.549
0.388,0.165,0.246,-25.757,-79.468,4.089
0.441,0.155,0.118,-28.992,-90.698,7.935
0.436,0.192,-0.036,-32.532,-102.478,10.803
0.506,0.173,-0.212,-36.682,-116.455,14.221
0.510,0.198,-0.438,-39.978,-125.305,20.020
0.527,0.243,-0.703,-40.710,-126.953,27.710
0.650,0.278,-1.044,-35.706,-124.756,38.391
0.632,0.362,-1.540,-21.667,-114.441,50.476
0.503,0.495,-1.996,9.766,-89.233,55.725
0.387,0.501,-2.192,67.322,-37.476,55.847
0.421,0.375,-2.137,134.460,29.663,47.974
0.545,0.134,-1.826,191.162,93.994,41.992
0.753,-0.181,-1.299,224.060,150.757,42.664
0.901,-0.389,-0.761,224.609,197.327,46.692
1.083,-0.454,-0.198,207.214,229.614,48.584
1.086,-0.463,0.344,191.223,239.868,53.955
1.060,-0.579,0.947,188.232,226.562,64.087
1.007,-0.767,1.556,195.801,190.796,75.928
0.915,-0.862,2.020,195.801,152.832,83.313
0.772,-0.840,2.299,183.167,124.756,86.121
0.635,-0.820,2.396,164.795,108.826,90.027
0.515,-0.906,2.614,144.836,104.736,98.206
0.374,-1.046,2.869,128.723,109.741,101.563
0.264,-1.055,3.077,111.938,120.667,94.360
0.143,-0.991,3.195,91.370,120.361,86.487
0.115,-0.952,3.160,75.256,109.375,84.839
0.637,-0.874,3.225,61.951,86.853,84.412
-0.048,-0.621,3.182,38.574,26.428,109.863
-0.172,-1.112,2.672,38.330,-21.118,103.577
-0.291,-1.012,2.378,47.424,2.136,60.242
-0.328,-0.961,2.302,41.931,37.109,57.739
-0.237,-1.113,2.587,25.818,25.452,54.260
-0.230,-1.179,2.737,15.137,24.963,58.044
-0.282,-1.303,2.706,5.737,16.296,46.936
-0.310,-1.357,2.745,-0.793,5.615,32.654
-0.254,-1.412,2.816,-10.132,-7.202,20.630
-0.217,-1.451,2.859,-19.104,-25.757,10.010
-0.193,-1.460,2.784,-26.489,-46.021,-2.991
-0.198,-1.431,2.589,-31.189,-71.106,-18.250
-0.250,-1.404,2.311,-34.119,-90.515,-32.532
-0.288,-1.361,2.128,-34.302,-99.731,-44.250
-0.231,-1.436,1.949,-35.828,-104.187,-52.734
-0.306,-1.438,1.807,-38.940,-96.313,-70.435
-0.309,-1.372,1.668,-44.800,-83.618,-88.135
-0.290,-1.337,1.609,-52.490,-67.810,-101.257
-0.269,-1.350,1.627,-60.486,-52.551,-112.488
-0.229,-1.322,1.627,-65.552,-46.997,-125.549
-0.115,-1.213,1.520,-63.538,-57.922,-140.564
-0.121,-1.088,1.391,-52.307,-80.444,-153.198
-0.055,-1.025,1.304,-39.734,-100.586,-159.180
-0.035,-0.984,1.239,-29.419,-111.633,-161.316
-0.037,-1.082,1.236,-19.592,-119.934,-161.255
-0.104,-1.223,1.213,-13.672,-127.869,-166.077
-0.059,-1.193,1.098,-11.536,-133.972,-181.213
-0.042,-1.101,1.019,-8.545,-134.583,-197.327
-0.026,-1.163,0.965,-4.883,-123.169,-207.947
-0.011,-1.169,0.890,-7.202,-103.455,-222.351
0.060,-0.946,0.792,-13.611,-80.688,-236.877
0.206,-0.699,0.686,-20.447,-57.739,-237.976
0.317,-0.492,0.533,-30.945,-35.645,-225.098
0.323,-0.432,0.436,-42.480,-25.635,-205.627
0.300,-0.317,0.202,-48.340,-16.418,-188.354
0.268,-0.144,-0.070,-47.058,-13.489,-181.152
0.294,-0.075,-0.265,-35.706,-14.832,-181.763
0.350,-0.006,-0.401,-17.456,-7.141,-181.458
0.526,0.110,-0.447,-2.808,7.935,-179.321
0.804,0.326,-0.392,6.470,16.724,-171.387
1.020,0.427,-0.240,9.705,30.396,-147.949
1.034,0.403,-0.117,2.625,52.734,-118.225
0.982,0.402,-0.076,-8.301,63.477,-96.252
0.923,0.381,-0.047,-10.315,71.167,-78.979
0.897,0.391,-0.038,-3.967,77.820,-70.496
0.765,0.374,-0.041,12.207,72.754,-75.134
0.807,0.421,0.006,33.081,60.303,-82.520
0.856,0.574,0.169,52.429,59.143,-83.008
0.938,0.615,0.390,64.392,62.317,-69.519
1.010,0.655,0.514,59.998,63.721,-45.349
0.996,0.563,0.660,42.480,63.477,-28.809
0.906,0.524,0.736,16.541,71.716,-20.996
0.879,0.524,0.819,-8.789,79.041,-18.188
0.845,0.578,0.837,-30.396,83.374,-18.677
0.776,0.623,0.782,-47.424,85.022,-15.564
0.705,0.590,0.671,-49.622,72.021,-10.620
0.611,0.559,0.625,-35.034,55.908,-10.254
0.522,0.509,0.673,-8.423,34.363,-16.968
0.485,0.462,0.769,16.235,18.188,-23.376
0.446,0.421,0.867,26.245,6.226,-23.621
0.380,0.376,0.918,22.766,-2.441,-20.813
0.274,0.301,0.904,12.451,-4.028,-14.099
0.206,0.240,0.863,2.380,-3.906,-6.958
0.160,0.179,0.855,-2.625,-2.258,-3.357
0.187,0.156,0.838,-4.639,2.930,-1.648
0.205,0.134,0.860,-3.113,6.409,2.686
0.169,0.081,0.917,-0.061,8.301,8.240
0.152,0.039,0.954,1.953,12.146,14.038
0.117,-0.004,1.021,3.601,16.968,19.958
0.083,-0.046,1.067,4.761,19.592,23.071
0.025,-0.093,1.102,6.592,16.357,25.146
-0.007,-0.153,1.093,7.141,8.484,26.306
-0.042,-0.178,1.049,5.920,3.784,24.475
-0.057,-0.186,1.016,4.211,3.601,20.264
0.145,0.010,1.056,-17.395,-6.836,-1.038
0.131,0.007,1.071,-22.461,-6.348,-0.793
0.125,0.008,1.084,-26.123,-9.216,-0.366
0.127,0.003,1.090,-27.954,-15.564,-0.671
0.127,0.016,1.067,-29.297,-22.522,-3.113
0.127,0.035,1.039,-30.579,-28.931,-5.737
0.131,0.052,1.016,-30.701,-38.086,-7.812
0.143,0.068,0.984,-31.921,-49.072,-7.080
0.149,0.087,0.956,-37.720,-55.847,-5.066
0.165,0.094,0.965,-45.349,-61.890,-1.221
0.194,0.109,0.971,-55.054,-70.435,6.287
0.215,0.110,0.943,-66.162,-83.923,15.930
0.240,0.104,0.868,-76.477,-101.379,26.123
0.278,0.128,0.798,-87.097,-119.080,38.757
0.301,0.063,0.651,-100.464,-134.155,52.612
0.349,0.037,0.486,-112.305,-154.602,61.584
0.323,0.059,0.302,-119.934,-168.762,67.017
0.386,0.035,0.063,-127.869,-171.204,66.956
0.369,0.064,-0.215,-129.456,-167.236,61.401
0.387,0.137,-0.494,-120.911,-161.743,50.171
0.406,0.252,-0.793,-107.971,-141.724,32.349
0.413,0.398,-1.076,-85.632,-107.300,14.160
0.453,0.553,-1.247,-52.795,-64.758,3.540
0.406,0.702,-1.334,-14.160,-14.160,2.747
0.513,0.717,-1.361,27.466,36.316,8.057
0.610,0.690,-1.312,74.707,77.393,16.479
0.715,0.568,-1.204,120.483,105.408,25.452
0.808,0.429,-1.025,161.377,126.831,35.217
0.873,0.306,-0.753,193.298,142.029,46.021
0.929,0.182,-0.436,208.740,149.048,60.120
0.990,0.070,-0.231,207.458,151.550,78.430
0.957,-0.104,-0.036,202.759,151.306,95.337
0.900,-0.319,0.184,201.721,156.067,107.727
0.761,-0.486,0.496,203.491,166.321,114.319
0.654,-0.704,0.901,207.153,171.082,115.417
0.598,-0.915,1.329,205.811,181.030,112.366
0.561,-1.001,1.709,193.054,193.787,104.553
0.500,-1.008,2.058,173.889,194.885,94.177
0.432,-1.059,2.419,157.837,189.880,87.524
0.361,-1.103,2.645,143.921,179.077,84.839
0.392,-1.146,2.914,130.432,169.983,84.595
0.340,-1.138,3.109,114.746,148.132,84.534
0.319,-1.122,3.101,91.003,123.047,84.106
0.762,-0.913,3.343,66.833,96.863,84.045
0.177,-0.762,3.165,39.551,19.043,108.398
0.012,-1.164,2.566,46.082,-50.842,88.745
-0.188,-1.073,2.315,73.914,-20.325,57.251
-0.287,-1.104,2.272,80.872,32.532,45.349
-0.222,-1.293,2.448,59.753,38.086,31.250
-0.248,-1.226,2.716,41.199,36.621,27.161
-0.223,-1.309,2.751,32.471,27.771,22.522
-0.192,-1.361,2.840,21.851,18.799,20.752
-0.246,-1.477,2.821,4.395,1.343,11.353
-0.235,-1.499,2.667,-14.526,-12.756,3.540
-0.254,-1.469,2.515,-26.611,-30.518,-9.399
-0.289,-1.448,2.284,-33.569,-50.964,-25.879
-0.236,-1.388,1.992,-34.912,-69.397,-44.556
-0.207,-1.327,1.763,-28.198,-79.956,-60.120
-0.162,-1.240,1.601,-17.639,-86.914,-74.341
-0.118,-1.206,1.513,-10.742,-84.961,-82.947
-0.097,-1.332,1.509,-8.545,-74.585,-87.280
-0.113,-1.488,1.571,-13.550,-61.096,-95.337
-0.083,-1.472,1.527,-27.893,-52.795,-111.938
-0.020,-1.456,1.513,-43.457,-53.528,-128.357
0.039,-1.383,1.467,-47.546,-57.800,-145.081
0.069,-1.325,1.422,-36.011,-77.515,-165.588
0.123,-1.276,1.358,-18.066,-105.225,-184.021
0.186,-1.208,1.333,-1.770,-125.854,-196.350
0.294,-1.138,1.284,6.470,-136.719,-203.369
0.388,-1.057,1.161,3.418,-139.465,-203.308
0.413,-0.977,1.086,-4.700,-128.052,-198.425
0.387,-0.960,1.084,-15.320,-106.995,-192.566
0.348,-0.990,1.052,-29.114,-87.830,-189.270
0.315,-1.052,1.011,-42.480,-75.012,-190.491
0.321,-0.988,0.968,-54.871,-65.918,-199.707
0.347,-0.873,0.864,-60.242,-58.594,-213.257
0.405,-0.723,0.784,-59.021,-56.213,-221.130
0.453,-0.592,0.666,-54.321,-58.289,-225.464
0.476,-0.478,0.566,-44.983,-64.880,-228.699
0.480,-0.349,0.452,-38.452,-66.223,-227.051
0.515,-0.216,0.286,-38.574,-62.195,-222.717
0.539,-0.106,0.156,-39.612,-53.650,-214.722
0.534,0.025,0.069,-41.565,-37.781,-203.552
0.564,0.174,0.021,-41.931,-23.071,-186.218
0.688,0.323,-0.022,-35.522,-11.597,-165.649
0.773,0.440,-0.088,-27.771,-3.174,-139.465
0.771,0.528,-0.198,-22.827,0.732,-110.291
0.710,0.526,-0.327,-20.508,13.062,-86.182
0.545,0.507,-0.357,-16.968,44.373,-70.862
0.616,0.481,-0.318,-12.390,76.111,-62.439
0.707,0.482,-0.135,-5.188,102.966,-61.218
0.847,0.536,0.086,2.686,122.070,-66.467
0.989,0.660,0.302,12.573,122.192,-72.144
1.076,0.766,0.531,18.127,110.718,-70.984
1.156,0.828,0.636,11.658,97.229,-63.049
1.114,0.828,0.699,-1.160,87.402,-54.871
0.965,0.843,0.745,-11.169,75.623,-48.157
0.862,0.812,0.762,-11.536,55.176,-42.725
0.790,0.780,0.718,-5.981,31.128,-39.063
0.714,0.766,0.653,2.563,11.047,-37.048
0.585,0.736,0.630,10.925,-1.038,-32.227
0.462,0.682,0.630,12.634,-5.066,-23.865
0.368,0.628,0.628,8.911,-2.930,-13.794
0.288,0.547,0.639,3.906,1.709,-4.150
0.202,0.458,0.687,-2.197,9.399,5.493
0.137,0.326,0.761,-9.644,15.808,14.648
0.075,0.195,0.789,-16.174,20.874,21.606
0.003,0.102,0.822,-13.672,23.926,22.217
-0.037,0.051,0.853,-0.305,15.320,14.343
-0.036,0.059,0.839,14.832,0.427,5.005
-0.022,0.079,0.815,23.560,-9.583,-0.244
-0.009,0.092,0.802,22.644,-7.324,1.221
-0.024,0.091,0.804,17.212,3.540,7.874
-0.033,0.067,0.839,12.390,14.343,13.672
-0.041,0.020,0.856,9.644,19.531,16.724
-0.061,0.000,0.894,10.498,20.142,17.578
-0.067,-0.020,0.921,9.827,19.409,17.456
-0.049,-0.048,0.925,5.249,20.569,18.250
-0.058,-0.072,0.956,1.465,25.818,18.982
0.001,0.154,0.794,-25.208,-28.015,-1.770
0.003,0.159,0.790,-24.719,-28.015,-1.465
0.013,0.171,0.781,-25.024,-26.794,-0.671
0.003,0.180,0.775,-25.085,-24.597,0.488
0.000,0.188,0.771,-25.452,-22.339,1.953
-0.005,0.178,0.770,-24.414,-21.912,3.174
-0.021,0.166,0.783,-22.156,-21.606,3.052
-0.031,0.169,0.792,-19.470,-21.606,1.953
-0.041,0.182,0.784,-18.494,-21.667,0.244
-0.037,0.195,0.767,-18.860,-21.973,-0.977
-0.024,0.204,0.743,-19.226,-23.010,-1.282
-0.010,0.212,0.718,-19.287,-23.926,-1.282
-0.025,0.210,0.702,-18.555,-25.635,-1.099
0.027,0.199,0.639,-17.029,-29.785,-1.099
0.111,0.188,0.636,-14.465,-33.691,-0.854
0.180,0.220,0.658,-10.559,-36.804,0.427
0.266,0.238,0.668,-8.972,-42.908,4.395
0.360,0.257,0.656,-11.353,-51.819,11.414
0.475,0.280,0.617,-15.564,-62.500,22.217
0.562,0.303,0.542,-21.240,-74.036,37.292
0.594,0.305,0.405,-29.602,-84.167,54.016
0.568,0.276,0.184,-39.795,-88.745,71.167
0.511,0.244,-0.121,-49.683,-88.806,85.144
0.456,0.259,-0.503,-55.786,-82.520,93.018
0.413,0.323,-0.931,-50.354,-70.068,94.116
0.406,0.382,-1.373,-26.184,-52.551,88.318
0.466,0.487,-1.676,16.113,-28.320,76.660
0.522,0.579,-1.756,72.571,6.348,65.979
0.554,0.584,-1.603,130.859,51.880,67.200
0.796,0.430,-1.430,170.776,87.585,76.233
0.927,0.268,-1.254,192.322,115.356,93.201
1.018,0.028,-1.059,206.848,135.254,109.924
1.022,-0.225,-0.781,215.881,156.189,119.812
1.019,-0.428,-0.466,217.224,172.913,122.437
1.032,-0.594,-0.039,219.910,182.983,119.385
1.049,-0.776,0.488,227.966,184.692,112.915
1.017,-0.960,1.073,235.168,179.443,107.910
0.970,-1.077,1.544,235.657,167.358,104.736
1.033,-1.076,1.853,225.342,152.710,108.093
1.042,-1.081,2.227,205.811,146.118,120.972
0.882,-1.167,2.502,179.260,152.222,135.315
0.657,-1.274,2.683,151.428,157.898,144.470
0.456,-1.413,2.880,127.930,153.809,148.621
0.274,-1.504,3.016,110.352,147.278,139.954
0.155,-1.419,3.138,95.642,137.451,126.038
0.011,-1.409,3.165,86.304,115.417,115.173
-0.063,-1.442,3.117,78.613,95.093,105.164
-0.287,-1.214,3.243,58.411,60.242,103.210
-0.121,-1.283,3.062,29.480,6.714,115.967
-0.471,-1.465,2.605,26.123,-24.536,79.529
-0.416,-1.423,2.322,31.433,1.953,50.049
-0.363,-1.311,2.224,31.677,44.189,40.039
-0.329,-1.335,2.258,13.245,42.419,22.522
-0.248,-1.291,2.292,-3.784,26.367,21.545
-0.181,-1.299,2.182,-8.972,16.846,9.827
-0.081,-1.244,2.139,-13.184,11.780,-4.333
-0.014,-1.238,2.155,-21.118,2.930,-11.780
0.048,-1.271,2.144,-27.405,-9.094,-18.066
0.085,-1.258,2.035,-29.236,-23.193,-28.503
0.102,-1.231,1.930,-26.123,-39.429,-39.612
0.092,-1.241,1.803,-20.752,-60.181,-48.950
0.029,-1.304,1.660,-17.212,-73.730,-57.556
-0.009,-1.373,1.566,-14.221,-73.792,-66.467
-0.070,-1.488,1.538,-15.991,-70.862,-77.393
-0.093,-1.540,1.507,-21.912,-69.519,-93.750
-0.119,-1.517,1.496,-25.574,-65.125,-109.863
-0.130,-1.536,1.500,-32.166,-54.260,-119.995
-0.115,-1.651,1.551,-42.847,-38.391,-124.329
-0.107,-1.796,1.679,-55.542,-27.649,-131.531
-0.090,-1.697,1.704,-61.279,-37.659,-148.743
-0.050,-1.605,1.617,-47.791,-72.449,-162.476
-0.016,-1.568,1.502,-23.621,-113.464,-167.175
0.083,-1.605,1.407,-3.235,-136.963,-169.189
0.071,-1.662,1.319,3.784,-137.817,-166.199
0.011,-1.853,1.276,-1.282,-125.977,-161.133
-0.089,-1.985,1.153,-16.479,-105.957,-170.044
0.004,-1.933,0.926,-38.147,-86.182,-194.885
0.152,-1.778,0.792,-47.607,-67.810,-226.135
0.365,-1.530,0.647,-46.814,-48.401,-251.160
0.554,-1.266,0.506,-50.659,-30.823,-262.756
0.822,-0.969,0.389,-62.622,-15.625,-265.137
1.134,-0.565,0.338,-72.510,-4.395,-255.188
1.297,-0.245,0.199,-79.895,-0.793,-230.957
1.277,-0.010,-0.008,-83.191,0.916,-196.533
1.231,0.070,-0.246,-80.811,-0.305,-159.180
1.065,0.040,-0.518,-74.524,-2.808,-129.333
0.923,-0.033,-0.728,-69.153,4.456,-123.047
0.888,0.071,-0.859,-67.444,18.188,-138.672
1.059,0.314,-0.825,-55.542,36.072,-165.771
1.298,0.598,-0.680,-36.987,55.786,-187.622
1.682,0.988,-0.381,-23.865,73.059,-189.087
1.953,1.380,-0.078,-15.076,74.646,-171.814
1.985,1.567,0.205,-4.578,59.387,-147.461
1.943,1.701,0.341,-2.930,39.978,-120.300
1.747,1.797,0.407,-9.399,27.527,-95.947
1.491,1.761,0.432,-13.733,21.484,-81.726
1.217,1.691,0.452,-11.597,16.846,-69.336
1.028,1.623,0.433,-10.254,14.771,-52.917
0.808,1.486,0.483,-13.428,12.878,-32.227
0.609,1.276,0.470,-19.958,10.498,-9.583
0.464,1.078,0.374,-24.780,10.803,10.071
0.268,0.867,0.306,-18.677,11.292,23.865
0.116,0.633,0.325,-4.578,11.047,32.471
0.016,0.432,0.430,12.085,9.888,33.447
-0.016,0.299,0.555,29.480,5.432,28.870
-0.059,0.161,0.677,43.823,-0.427,24.902
-0.107,0.023,0.809,51.819,-2.930,23.621
-0.144,-0.097,0.901,49.988,-3.113,24.353
-0.168,-0.207,0.931,42.297,-4.456,25.818
-0.182,-0.318,0.936,33.508,-6.531,27.771
-0.180,-0.398,0.951,24.658,-5.859,27.710
-0.163,-0.463,1.031,18.005,-3.601,24.475
-0.179,-0.457,1.135,15.076,-3.479,20.081
-0.155,-0.423,1.188,14.709,-5.005,14.404
-0.128,-0.402,1.196,16.602,-5.188,12.024
-0.121,-0.400,1.164,15.564,-4.150,11.475
-0.105,-0.377,1.093,5.615,-2.014,11.536
-0.083,-0.359,1.082,-8.789,-1.404,10.132
-0.078,-0.319,1.074,-20.081,-2.502,7.385
0.198,0.115,0.526,-50.598,-42.358,2.930
0.239,0.190,0.436,-53.345,-36.133,1.892
0.250,0.219,0.339,-54.382,-31.128,4.150
0.292,0.235,0.151,-55.359,-26.184,10.132
0.333,0.291,-0.086,-54.016,-19.958,15.503
0.361,0.356,-0.298,-44.922,-14.038,18.188
0.383,0.414,-0.448,-28.931,-4.395,22.095
0.407,0.454,-0.618,-10.559,7.446,27.100
0.399,0.450,-0.810,11.475,17.273,29.846
0.366,0.412,-0.922,38.635,25.452,31.616
0.337,0.303,-0.959,68.909,33.447,32.104
0.363,0.208,-0.931,99.792,46.326,29.846
0.419,0.112,-0.806,125.427,60.974,25.635
0.531,0.054,-0.645,137.878,75.562,22.888
0.696,0.028,-0.425,137.390,89.111,25.879
0.762,-0.051,-0.206,132.019,96.924,34.302
0.774,-0.115,-0.097,121.582,100.159,43.213
0.775,-0.210,0.044,110.962,103.210,50.781
0.694,-0.334,0.228,108.826,109.192,54.871
0.570,-0.420,0.468,111.389,115.295,55.542
0.536,-0.417,0.637,112.122,118.225,52.673
0.527,-0.377,0.767,113.953,117.310,50.232
0.506,-0.358,0.906,114.014,118.469,52.979
0.491,-0.407,1.099,109.619,125.549,59.814
0.507,-0.475,1.310,107.544,130.249,68.054
0.545,-0.617,1.603,109.741,126.343,73.547
0.544,-0.721,1.912,110.535,117.798,72.205
0.481,-0.744,2.101,104.675,109.131,66.833
0.445,-0.775,2.207,90.759,104.065,62.683
0.379,-0.773,2.195,70.984,101.013,59.204
0.316,-0.706,2.083,49.622,97.168,53.345
0.931,-0.417,2.419,33.325,89.905,51.758
0.269,-0.341,2.411,19.287,5.310,81.970
0.167,-0.734,2.111,32.471,-46.631,77.515
-0.046,-0.908,1.889,69.824,34.302,52.368
0.002,-0.891,2.060,91.248,132.202,25.574
0.073,-1.001,2.359,66.223,119.507,14.343
0.148,-1.029,2.448,36.865,87.463,30.945
0.260,-1.112,2.479,25.330,84.961,31.982
0.264,-1.082,2.657,21.667,83.923,26.062
0.359,-1.170,2.818,15.686,62.317,28.870
0.377,-1.255,2.915,8.789,36.926,29.602
0.354,-1.312,2.926,1.648,7.935,26.306
0.340,-1.372,2.812,-4.272,-19.592,19.653
0.253,-1.375,2.710,-7.324,-32.532,12.146
0.227,-1.433,2.632,-11.841,-43.945,5.066
0.194,-1.511,2.567,-17.090,-51.147,-3.845
0.169,-1.556,2.478,-24.536,-52.368,-16.785
0.159,-1.547,2.389,-32.776,-50.110,-29.114
0.124,-1.572,2.344,-43.274,-46.204,-37.842
0.129,-1.591,2.307,-56.763,-41.504,-44.678
0.145,-1.595,2.246,-70.313,-41.321,-50.354
0.116,-1.594,2.148,-78.796,-48.401,-56.152
0.119,-1.586,2.035,-81.604,-61.462,-61.707
0.109,-1.621,1.974,-77.820,-78.735,-67.444
-0.101,-1.753,1.848,-72.205,-97.717,-78.186
0.043,-1.766,1.807,-66.284,-118.286,-102.905
0.127,-1.691,1.528,-62.805,-136.902,-122.925
0.118,-1.608,1.343,-56.335,-122.253,-148.743
0.114,-1.512,1.311,-58.716,-130.432,-166.992
0.279,-1.426,1.151,-62.988,-146.790,-187.012
0.434,-1.241,1.004,-59.143,-157.349,-200.134
0.538,-1.034,0.795,-50.842,-160.889,-204.651
0.559,-0.901,0.569,-40.955,-158.142,-197.144
0.604,-0.759,0.302,-38.696,-151.428,-185.791
0.631,-0.658,0.056,-40.710,-134.033,-177.673
0.641,-0.612,-0.096,-37.537,-106.384,-173.218
0.642,-0.492,-0.281,-38.635,-74.646,-172.729
0.725,-0.418,-0.429,-39.612,-49.011,-173.523
0.791,-0.303,-0.508,-39.001,-24.902,-173.645
0.901,-0.207,-0.531,-36.743,-2.686,-172.913
1.081,-0.107,-0.580,-33.569,13.123,-174.072
1.214,0.009,-0.595,-28.137,22.644,-177.246
1.335,0.131,-0.591,-20.874,30.518,-184.326
1.466,0.274,-0.516,-11.841,41.138,-196.350
1.534,0.476,-0.300,-6.714,49.866,-211.243
1.657,0.724,-0.105,-12.146,58.960,-220.581
1.691,0.950,0.004,-26.794,59.448,-216.919
1.713,1.181,0.093,-47.913,58.594,-199.219
1.625,1.368,0.161,-70.129,62.256,-170.654
1.396,1.468,0.234,-87.341,62.622,-134.888
1.187,1.407,0.314,-100.342,56.091,-101.563
1.031,1.367,0.283,-107.910,46.997,-75.928
0.884,1.363,0.184,-97.900,31.372,-61.340
0.740,1.399,0.101,-66.101,9.338,-56.030
0.661,1.413,0.105,-23.987,-7.568,-54.382
0.671,1.341,0.240,13.184,-15.137,-48.584
0.638,1.222,0.417,32.837,-13.794,-33.752
0.604,1.037,0.530,35.400,-10.132,-14.038
0.460,0.811,0.618,30.701,-8.118,5.066
0.289,0.613,0.631,25.330,-4.211,17.212
0.141,0.438,0.624,26.428,-7.324,22.278
0.049,0.280,0.623,31.677,-12.573,22.766
-0.022,0.128,0.653,37.354,-10.986,20.508
-0.075,0.025,0.676,40.771,-7.141,16.663
-0.095,-0.066,0.688,45.288,-6.958,13.123
-0.104,-0.154,0.714,47.607,-5.615,10.864
-0.160,-0.218,0.762,46.692,2.197,9.583
-0.178,-0.257,0.830,42.419,13.000,8.423
-0.107,-0.266,0.891,32.532,24.963,7.568
-0.090,-0.238,0.962,19.287,38.513,8.362
-0.011,-0.207,1.044,7.385,52.979,7.935
0.064,-0.178,1.143,-1.892,54.321,9.644
0.093,-0.152,1.171,-5.432,52.185,7.690
0.085,-0.103,1.138,-1.282,36.743,5.493
0.113,-0.106,1.105,5.920,13.428,2.319
0.140,-0.074,1.041,9.460,2.686,-1.526
0.155,-0.094,1.058,12.085,2.808,-2.808
0.148,-0.091,1.078,11.230,4.333,-3.052
0.174,-0.077,1.073,7.385,4.333,-2.808
0.177,-0.044,1.032,2.380,3.662,0.977
0.139,-0.046,0.994,-4.395,4.761,6.470
0.088,-0.053,0.947,-11.230,7.202,8.911
0.084,-0.051,0.927,-13.794,10.193,8.911
0.093,-0.048,0.929,-11.230,12.024,5.920
0.120,-0.045,0.970,-6.348,12.817,0.977
0.169,-0.019,0.988,-1.282,13.184,-2.686
0.196,-0.012,1.009,2.014,13.000,-3.601
0.189,-0.025,1.033,1.648,13.428,-2.075
0.197,0.091,0.913,-11.841,-1.709,3.357
0.194,0.096,0.896,-14.648,-1.038,4.272
0.196,0.078,0.893,-16.541,-0.916,4.883
0.203,0.062,0.896,-17.700,-2.136,4.333
0.216,0.058,0.892,-17.883,-5.615,1.770
0.233,0.064,0.872,-15.137,-12.817,-1.892
0.268,0.065,0.832,-10.803,-23.132,-5.676
0.304,0.063,0.787,-6.104,-33.752,-9.155
0.345,0.060,0.734,-2.319,-42.664,-11.780
0.404,0.058,0.677,-1.770,-49.133,-12.085
0.470,0.062,0.623,-5.493,-52.002,-8.545
0.544,0.067,0.564,-13.672,-52.734,-1.404
0.611,0.075,0.484,-25.879,-52.307,9.338
0.674,0.102,0.392,-40.955,-52.307,22.400
0.688,0.135,0.227,-59.143,-52.246,36.926
0.745,0.154,0.035,-76.111,-49.744,49.866
0.654,0.211,-0.194,-88.135,-46.021,60.303
0.527,0.221,-0.396,-95.581,-39.917,70.679
0.271,0.353,-0.697,-97.351,-33.813,83.435
0.110,0.420,-0.965,-82.581,-29.785,86.304
0.010,0.443,-1.216,-56.152,-26.611,81.970
0.008,0.412,-1.408,-16.846,-19.531,70.984
0.054,0.347,-1.427,30.945,-0.366,55.054
0.112,0.262,-1.346,78.430,28.259,38.818
0.218,0.177,-1.172,120.361,56.274,25.452
0.344,0.073,-0.933,155.273,78.491,14.587
0.478,0.033,-0.688,181.335,94.543,8.179
0.644,-0.019,-0.385,197.876,102.905,9.460
0.771,-0.103,-0.123,204.102,103.210,18.982
0.810,-0.152,0.079,202.393,104.431,32.654
0.775,-0.244,0.366,196.960,112.427,46.997
0.733,-0.351,0.624,192.200,125.916,58.899
0.701,-0.480,0.933,190.186,140.991,64.026
0.652,-0.612,1.281,191.040,152.832,61.829
0.648,-0.713,1.570,190.552,163.330,56.580
0.641,-0.805,1.830,187.073,171.448,50.781
0.682,-0.829,2.036,178.833,170.288,46.326
0.762,-0.827,2.177,165.039,159.119,46.204
0.789,-0.842,2.312,152.832,145.874,48.462
0.778,-0.683,2.563,141.296,127.197,56.885
0.828,-0.961,2.602,125.488,90.576,80.383
0.711,-1.279,2.444,122.131,104.370,59.021
0.555,-1.102,2.719,114.868,108.887,50.110
0.623,-1.139,2.649,91.858,65.552,55.908
0.611,-1.210,2.594,76.111,58.411,51.453
0.462,-1.193,2.610,66.956,60.547,51.392
0.407,-1.294,2.656,58.899,51.514,48.462
0.399,-1.352,2.657,50.476,35.278,44.495
0.430,-1.425,2.678,41.138,27.466,39.368
0.402,-1.458,2.675,26.917,21.301,34.607
0.379,-1.484,2.616,8.667,7.690,30.334
0.374,-1.519,2.516,-6.348,-5.310,24.109
0.367,-1.550,2.435,-17.578,-16.235,15.564
0.373,-1.543,2.355,-27.039,-21.912,2.441
0.411,-1.500,2.258,-36.316,-28.748,-9.277
0.457,-1.446,2.117,-46.387,-37.964,-19.775
0.490,-1.363,1.989,-54.810,-46.082,-27.710
0.528,-1.314,1.890,-61.157,-54.626,-32.837
0.548,-1.276,1.802,-67.139,-62.988,-37.415
0.541,-1.254,1.702,-72.327,-71.777,-41.565
0.516,-1.225,1.618,-75.745,-80.505,-45.349
0.501,-1.155,1.532,-77.454,-85.022,-49.255
0.528,-1.159,1.526,-76.782,-86.975,-52.063
0.537,-1.223,1.494,-78.674,-84.229,-59.937
0.424,-1.188,1.564,-87.036,-78.796,-55.115
0.491,-1.353,1.555,-97.168,-69.946,-55.603
0.483,-1.403,1.526,-109.863,-47.974,-69.702
0.492,-1.336,1.464,-124.878,-30.396,-81.116
0.545,-1.218,1.347,-139.465,-24.902,-92.041
0.596,-1.136,1.207,-145.264,-24.475,-99.548
0.667,-1.014,1.058,-136.536,-28.503,-104.126
0.699,-0.923,0.901,-116.760,-39.490,-108.093
0.723,-0.734,0.712,-91.675,-54.565,-109.192
0.629,-0.690,0.573,-58.838,-64.514,-107.971
0.626,-0.610,0.628,-36.987,-67.810,-103.882
0.637,-0.595,0.666,-33.569,-75.684,-99.731
0.632,-0.613,0.707,-40.527,-88.501,-98.389
0.595,-0.584,0.623,-58.655,-100.342,-98.022
0.556,-0.483,0.411,-81.970,-106.812,-97.534
0.546,-0.370,0.173,-96.985,-104.614,-96.985
0.410,-0.325,0.008,-100.830,-102.722,-94.910
0.384,-0.309,-0.130,-95.581,-94.971,-97.168
0.427,-0.280,-0.250,-79.956,-83.740,-106.079
0.444,-0.242,-0.215,-55.176,-76.660,-116.882
0.485,-0.185,-0.190,-36.011,-71.777,-127.991
0.561,-0.121,-0.189,-21.667,-69.397,-142.761
0.630,-0.033,-0.200,-15.381,-68.970,-160.583
0.707,0.094,-0.270,-18.921,-58.655,-177.979
0.826,0.236,-0.323,-26.855,-37.109,-186.707
0.968,0.408,-0.331,-36.499,-6.409,-183.472
1.037,0.534,-0.199,-46.692,27.527,-172.791
1.124,0.639,-0.044,-62.195,55.359,-164.795
1.122,0.814,-0.002,-76.416,66.345,-160.278
1.198,0.950,0.044,-75.623,60.974,-153.076
1.229,1.056,0.109,-62.500,47.241,-142.761
1.211,1.188,0.200,-48.767,32.593,-133.789
1.116,1.299,0.297,-35.767,17.517,-122.253
1.015,1.322,0.346,-25.879,4.517,-105.713
0.899,1.293,0.314,-23.499,-4.578,-85.876
0.796,1.217,0.333,-23.254,-6.897,-66.589
0.708,1.131,0.375,-22.278,-3.723,-51.880
0.644,1.076,0.408,-17.944,-0.366,-40.527
0.548,0.959,0.483,-10.376,-0.488,-30.518
0.498,0.864,0.564,-4.822,-3.845,-22.644
0.427,0.759,0.615,1.953,-10.010,-17.456
0.310,0.630,0.658,8.606,-16.785,-11.353
0.251,0.527,0.650,9.033,-19.409,-5.615
0.221,0.439,0.604,8.362,-20.081,0.061
0.120,0.323,0.647,10.071,-18.005,7.568
0.051,0.241,0.691,8.362,-11.719,12.939
0.036,0.146,0.677,4.028,-5.188,16.968
0.072,0.084,0.711,-0.061,5.920,19.958
0.004,0.040,0.822,-3.723,11.597,22.034
0.057,0.003,0.823,-6.226,17.578,20.081
0.062,0.022,0.867,-1.587,10.681,16.785
0.024,-0.011,0.927,7.385,0.427,11.719
0.046,-0.011,0.934,10.742,-6.104,9.216
0.070,-0.019,0.920,10.437,-9.033,8.301
0.081,-0.024,0.906,10.315,-5.554,7.324
0.291,-0.074,1.046,-28.625,-7.080,6.287
0.293,-0.065,1.011,-34.912,-9.216,7.446
0.324,-0.050,0.969,-41.992,-11.536,10.071
0.326,-0.043,0.909,-49.011,-15.137,13.489
0.323,-0.039,0.841,-55.847,-18.005,16.357
0.307,-0.031,0.751,-62.256,-21.362,19.714
0.299,-0.023,0.659,-67.139,-25.391,21.790
0.295,-0.005,0.563,-70.557,-28.748,22.339
0.283,0.020,0.472,-72.388,-31.982,22.339
0.262,0.040,0.380,-73.486,-34.607,22.461
0.253,0.068,0.296,-73.486,-35.828,22.583
0.231,0.093,0.211,-72.571,-36.377,23.987
0.212,0.103,0.135,-71.655,-36.682,24.231
0.204,0.112,0.056,-71.228,-36.499,24.658
0.198,0.129,-0.046,-71.350,-35.583,24.048
0.186,0.163,-0.170,-70.862,-34.546,21.240
0.198,0.218,-0.271,-67.322,-33.508,17.639
0.124,0.286,-0.382,-57.312,-35.706,12.573
0.125,0.290,-0.444,-41.992,-34.973,8.972
0.157,0.301,-0.508,-24.170,-28.137,6.958
0.152,0.315,-0.553,-4.822,-20.081,3.540
0.184,0.330,-0.580,14.404,-11.841,-1.831
0.260,0.348,-0.573,34.424,-0.183,-6.470
0.315,0.402,-0.555,51.331,12.878,-6.958
0.402,0.436,-0.491,65.491,25.940,-2.930
0.507,0.403,-0.382,80.200,36.011,6.470
0.529,0.346,-0.257,94.482,47.363,16.479
0.499,0.245,-0.114,108.643,59.021,23.987
0.429,0.138,0.008,121.277,63.477,28.931
0.442,0.075,0.064,131.104,69.580,29.419
0.445,0.065,0.152,143.311,75.439,27.222
0.455,0.031,0.237,156.555,84.839,28.259
0.510,-0.002,0.327,170.776,99.915,29.114
0.536,-0.111,0.597,187.927,122.375,34.424
0.542,-0.293,0.884,198.914,150.635,44.006
0.586,-0.497,1.200,197.021,181.885,54.626
0.613,-0.686,1.608,184.448,210.937,62.317
0.615,-0.847,1.971,166.199,227.844,62.622
0.630,-0.886,2.204,139.221,229.065,59.631
1.098,-0.770,2.497,110.229,215.820,55.420
0.548,-0.645,2.338,86.792,168.701,65.796
0.641,-0.741,1.943,86.182,156.311,40.222
0.649,-0.717,1.908,102.417,147.034,17.883
0.598,-0.606,1.922,114.807,101.196,21.973
0.778,-0.762,1.816,122.192,85.571,18.921
0.747,-0.810,1.992,125.916,86.731,18.738
0.774,-0.967,2.227,121.460,90.271,22.583
0.819,-1.129,2.418,107.239,95.093,26.855
0.857,-1.198,2.561,84.778,97.900,26.794
0.840,-1.188,2.646,61.707,93.384,24.231
0.823,-1.218,2.724,44.373,76.416,20.081
0.817,-1.306,2.785,35.339,55.969,14.282
0.775,-1.331,2.805,31.982,30.823,4.639
0.778,-1.339,2.802,26.611,0.488,-5.493
0.785,-1.422,2.759,20.874,-24.109,-11.353
0.818,-1.473,2.677,11.230,-40.466,-16.724
0.836,-1.454,2.578,-3.845,-50.720,-20.386
0.832,-1.438,2.407,-22.888,-57.251,-20.447
0.835,-1.428,2.220,-42.542,-59.753,-17.761
0.813,-1.428,2.073,-59.937,-58.838,-15.930
0.783,-1.434,1.963,-76.843,-57.922,-18.005
0.778,-1.451,1.872,-92.407,-55.420,-24.048
0.821,-1.366,1.760,-102.539,-57.129,-33.936
0.768,-1.288,1.672,-102.539,-69.702,-44.800
0.822,-1.175,1.512,-93.323,-84.290,-56.885
0.691,-1.197,1.414,-78.064,-99.426,-65.796
0.779,-1.094,1.349,-66.040,-102.661,-77.393
0.820,-1.019,1.364,-67.322,-112.244,-60.547
0.845,-1.057,1.250,-75.867,-107.178,-51.392
0.711,-1.112,1.267,-90.454,-91.858,-48.218
0.591,-1.414,1.391,-105.591,-65.063,-45.349
0.528,-1.454,1.309,-133.484,-38.147,-68.848
0.608,-1.047,1.205,-171.021,-27.161,-97.107
0.514,-1.000,1.139,-177.551,-43.457,-114.136
0.274,-0.968,0.987,-148.254,-63.171,-135.071
0.542,-0.941,0.844,-107.300,-64.087,-155.029
0.596,-0.603,0.714,-80.566,-97.229,-179.138
0.570,-0.479,0.692,-60.974,-163.025,-199.646
0.622,-0.485,0.690,-38.940,-218.567,-199.524
0.651,-0.407,0.440,-34.180,-233.398,-182.800
0.631,-0.385,0.113,-47.668,-200.073,-158.875
0.514,-0.341,-0.193,-74.646,-158.813,-139.954
0.435,-0.315,-0.483,-103.394,-119.568,-133.179
0.387,-0.231,-0.671,-122.192,-78.491,-132.996
0.422,-0.223,-0.736,-129.395,-36.987,-134.521
0.534,-0.173,-0.790,-131.775,0.854,-137.451
0.660,0.064,-0.874,-125.183,26.794,-146.790
0.802,0.357,-0.856,-101.868,26.733,-153.137
0.934,0.486,-0.708,-68.726,12.512,-148.499
0.992,0.534,-0.576,-41.077,-2.686,-137.390
1.041,0.512,-0.493,-29.114,-5.676,-126.221
1.114,0.548,-0.419,-35.889,8.240,-120.483
1.163,0.678,-0.318,-55.603,31.372,-118.286
1.168,0.824,-0.195,-79.163,51.086,-113.037
1.128,0.938,-0.122,-100.525,64.026,-98.877
1.108,1.032,-0.102,-116.516,67.871,-80.200
1.083,1.171,-0.084,-122.742,63.660,-62.988
0.995,1.269,0.002,-112.671,50.842,-49.622
0.878,1.246,0.073,-92.590,28.442,-39.307
0.707,1.150,0.126,-72.571,5.798,-32.532
0.607,1.087,0.123,-53.284,-6.592,-29.968
0.524,1.027,0.135,-32.349,-17.212,-30.090
0.455,0.993,0.157,-14.954,-27.344,-31.799
0.410,0.962,0.161,0.610,-19.165,-29.846
0.366,0.884,0.237,11.902,-10.498,-22.766
0.315,0.764,0.361,19.043,-4.272,-16.846
0.315,0.666,0.482,24.414,4.150,-12.146
0.335,0.546,0.585,30.640,9.399,-7.690
0.347,0.438,0.706,36.072,8.972,-3.357
0.299,0.331,0.804,41.382,4.456,-1.038
0.271,0.234,0.852,44.006,-2.686,0.305
0.225,0.154,0.873,45.898,-9.766,1.282
0.152,0.086,0.923,46.875,-14.282,2.686
0.109,0.041,0.919,42.908,-15.808,4.089
0.087,-0.009,0.897,36.133,-14.954,6.348
0.075,-0.067,0.874,29.236,-11.475,6.348
0.077,-0.095,0.894,24.536,-5.371,2.991
0.076,-0.077,0.944,22.034,0.488,-2.625
0.056,-0.095,0.981,22.034,5.188,-8.911
0.245,0.028,0.910,-10.864,5.676,4.089
0.264,0.023,0.906,-10.315,5.798,4.639
0.283,0.012,0.922,-10.193,6.226,4.639
0.304,0.010,0.943,-10.925,5.371,5.005
0.324,0.016,0.939,-13.489,4.333,5.676
0.339,0.012,0.933,-15.747,2.808,6.348
0.344,0.011,0.923,-16.907,0.854,7.141
0.351,0.020,0.885,-18.311,-2.319,7.507
0.362,0.017,0.855,-18.738,-4.944,7.507
0.369,0.034,0.829,-17.578,-8.667,6.165
0.378,0.054,0.792,-14.893,-14.771,4.089
0.388,0.064,0.733,-12.024,-21.973,2.563
0.394,0.085,0.648,-10.010,-27.954,1.648
0.408,0.114,0.535,-8.850,-32.104,1.587
0.426,0.151,0.406,-8.301,-35.034,3.662
0.430,0.209,0.245,-9.094,-37.598,6.897
0.450,0.265,0.053,-9.827,-39.856,11.047
0.473,0.358,-0.147,-8.057,-44.067,15.991
0.499,0.447,-0.355,-4.456,-51.025,21.179
0.496,0.476,-0.539,1.038,-61.646,28.381
0.453,0.440,-0.740,7.629,-70.068,38.513
0.432,0.396,-0.992,16.785,-70.068,49.866
0.306,0.341,-1.177,31.616,-62.988,57.678
0.274,0.253,-1.270,48.889,-40.527,63.599
0.269,0.146,-1.314,70.557,-9.949,65.308
0.322,0.035,-1.251,93.994,20.630,60.669
0.394,-0.048,-1.105,116.211,51.208,49.622
0.475,-0.109,-0.890,135.071,77.148,38.330
0.556,-0.179,-0.640,149.475,94.788,31.860
0.597,-0.255,-0.362,156.311,105.225,31.677
0.615,-0.336,-0.161,155.334,107.605,36.377
0.572,-0.378,-0.046,150.696,103.088,42.175
0.530,-0.427,0.039,146.606,93.384,46.326
0.506,-0.478,0.118,146.484,89.294,47.974
0.455,-0.557,0.301,152.527,94.971,49.438
0.445,-0.730,0.636,162.231,108.582,49.927
0.401,-0.900,1.098,166.565,125.122,46.814
0.446,-1.049,1.581,162.048,141.479,39.124
0.506,-1.132,2.019,150.635,154.541,31.067
1.170,-0.678,2.819,130.798,132.385,40.710
0.208,-1.023,2.756,101.440,40.161,95.520
0.467,-1.586,2.385,104.004,51.636,13.977
0.472,-1.213,2.619,114.258,113.953,-34.851
0.379,-1.010,2.830,112.366,29.114,-2.014
0.753,-1.295,2.686,96.313,-4.517,7.507
0.623,-1.294,2.745,83.923,11.292,17.700
0.563,-1.405,2.774,61.951,14.648,19.226
0.637,-1.467,2.772,40.161,18.005,22.888
0.670,-1.470,2.822,25.757,24.536,24.597
0.706,-1.422,2.817,11.780,28.992,23.499
0.714,-1.411,2.757,-3.357,20.142,19.897
0.700,-1.375,2.627,-17.883,10.620,15.015
0.686,-1.316,2.470,-29.358,2.686,7.385
0.690,-1.255,2.300,-38.208,-5.249,1.404
0.682,-1.170,2.141,-45.349,-9.399,-1.343
0.665,-1.115,1.995,-51.147,-12.573,-1.587
0.635,-1.098,1.853,-56.396,-17.090,-1.526
0.589,-1.077,1.733,-60.791,-21.667,-2.197
0.588,-1.086,1.619,-65.125,-21.362,-2.625
0.532,-1.092,1.577,-68.359,-14.160,-2.930
0.511,-1.150,1.590,-70.374,-15.503,-3.418
0.469,-1.188,1.543,-71.655,-21.423,-7.385
0.423,-1.164,1.477,-69.580,-35.339,-16.174
0.429,-1.139,1.389,-65.369,-49.622,-24.414
0.382,-1.138,1.348,-59.875,-62.683,-30.029
0.356,-1.218,1.352,-59.021,-70.374,-35.156
0.317,-1.166,1.300,-63.843,-72.998,-43.274
0.292,-1.129,1.239,-66.833,-80.322,-47.485
0.285,-1.114,1.200,-67.383,-82.336,-52.368
0.676,-1.118,1.359,-66.162,-75.012,-53.101
0.339,-1.286,1.194,-68.726,-29.236,-44.617
0.053,-1.130,1.419,-81.848,-36.865,-62.439
0.097,-1.249,1.299,-96.680,-74.951,-69.214
0.133,-1.180,1.089,-95.703,-64.575,-81.116
0.116,-1.044,1.030,-91.125,-73.792,-93.079
0.109,-1.044,0.991,-79.712,-92.773,-108.215
0.174,-1.081,0.941,-63.354,-97.839,-117.249
0.288,-0.943,0.770,-49.561,-101.257,-129.700
0.341,-0.754,0.669,-40.405,-107.056,-142.029
0.408,-0.680,0.596,-34.668,-101.501,-143.311
0.421,-0.657,0.599,-33.630,-77.759,-137.451
0.445,-0.719,0.660,-39.124,-62.622,-135.559
0.401,-0.651,0.607,-47.913,-62.561,-144.775
0.425,-0.544,0.490,-51.941,-69.946,-154.541
0.521,-0.401,0.274,-48.279,-72.754,-157.410
0.577,-0.259,0.150,-39.612,-63.904,-152.771
0.626,-0.154,0.116,-32.532,-53.223,-141.113
0.719,0.006,0.002,-29.602,-41.687,-126.465
0.759,0.097,-0.080,-23.132,-30.823,-105.957
0.720,0.093,-0.125,-17.578,-20.935,-81.787
0.675,0.095,-0.216,-18.738,-6.348,-66.589
0.659,0.084,-0.273,-21.362,8.545,-63.416
0.675,0.141,-0.341,-23.010,24.658,-70.984
0.759,0.242,-0.318,-22.217,39.307,-87.402
0.920,0.412,-0.210,-19.531,49.805,-105.042
1.087,0.597,-0.020,-13.611,56.030,-117.554
1.205,0.808,0.179,-11.597,57.190,-121.277
1.216,0.982,0.337,-16.541,53.345,-113.647
1.156,1.036,0.478,-29.541,45.410,-95.825
1.075,1.059,0.488,-46.265,37.903,-74.402
0.924,1.032,0.447,-58.533,34.058,-58.838
0.789,0.998,0.376,-66.650,28.015,-45.898
0.697,0.999,0.338,-68.726,22.705,-33.447
0.630,0.976,0.364,-65.674,22.034,-21.057
0.516,0.902,0.430,-61.523,22.888,-10.315
0.443,0.786,0.464,-56.030,23.437,-2.563
0.342,0.689,0.463,-43.518,18.738,-0.122
0.314,0.569,0.521,-22.766,8.972,-1.526
0.296,0.462,0.607,-4.028,-2.930,-3.235
0.255,0.368,0.675,8.179,-8.240,-2.808
0.207,0.271,0.753,13.611,-10.498,0.427
0.173,0.192,0.778,10.925,-12.268,5.249
0.130,0.123,0.793,5.066,-9.338,8.789
0.092,0.061,0.809,1.099,-5.554,12.268
0.090,0.010,0.809,-0.793,-3.784,16.235
0.102,-0.009,0.802,-2.991,-0.732,18.188
0.127,-0.058,0.824,-5.920,3.723,21.179
0.192,-0.108,0.861,-8.789,7.263,23.193
0.073,-0.122,0.929,-9.460,5.737,24.353